Accelerometer X (g),Accelerometer Y (g),Accelerometer Z (g),Gyroscope X (rad/s),Gyroscope Y (rad/s),Gyroscope Z (rad/s)
0.001015204,-0.02045836,0.9970807,0.01644619,-0.1517251,0.1080897
0.001015204,-0.02045836,0.9970807,0.01644619,-0.1517251,0.1080897
0.001496836,-0.01803474,0.9990417,0.01654156,-0.3308571,0.04700107
0.001004352,-0.02387611,0.9902474,0.1397353,0.02775334,0.04694203
-0.001427811,-0.01955863,0.9868692,0.01659669,-0.09172359,0.04694056
-0.001897507,-0.019532,0.9912492,0.01657585,-0.2112006,-0.01405207
5.35E-05,-0.02481734,0.9941354,-0.1065821,0.1473159,0.0469376
-0.002864638,-0.01905347,0.9907663,0.01653421,-0.1514274,-0.07508455
3.83E-05,-0.02000082,0.9931914,0.07799502,-0.03185146,0.1690128
-0.00188557,-0.01708175,0.9975901,0.1395578,-0.03184022,0.1078816
0.001499004,-0.01996975,0.9980567,-0.04517817,-0.03185653,-0.01414048
-0.001886814,-0.02096376,0.9936736,-0.2298755,-0.03194784,-0.07517142
-0.00431247,-0.01808704,0.9912598,-0.1066236,0.08753434,-0.01416247
0.003898778,-0.02096244,0.9931826,-0.04510489,0.02769396,-0.07528921
0.000524431,-0.02096196,0.9936717,0.01645266,0.206963,0.2297996
0.0005297,-0.02192047,0.9946392,0.1394918,0.02764317,0.04667158
0.000530162,-0.02482898,0.9921885,-0.1068417,0.08748899,-0.01441656
0.002464892,-0.02433029,0.9946231,0.1396248,0.1470908,0.04657355
0.001487534,-0.02096424,0.9931844,0.07800663,0.2068053,0.04649591
-0.000923556,-0.02048079,0.9936758,0.0780247,0.02754189,-0.0755257
0.000993508,-0.01856534,0.9912528,0.07804274,0.0275636,0.04647483
-0.000921698,-0.0233863,0.9917117,-0.04499904,-0.09181929,-0.01457471
-0.002856429,-0.02388498,0.9892771,0.0781753,0.0874873,0.1073684
-0.000449831,-0.02098367,0.9902661,0.0780191,0.08747122,-0.0147871
-0.003329997,-0.02289684,0.9931764,0.01651693,0.08745519,-0.1369042
4.30E-05,-0.01853607,0.9961199,0.1397687,0.08734532,0.2291765
0.001491874,-0.02046999,0.9951339,0.07813092,-0.09186183,-0.01507608
-0.000442701,-0.02048343,0.9931889,0.01651256,0.027583,-0.01517215
-0.001416497,-0.01904939,0.9912518,0.07810876,-0.03214453,0.1678396
-0.000433563,-0.0267677,0.9907176,-0.1066661,-0.2112391,-0.01526807
-0.001402396,-0.02289841,0.9926884,-0.1682457,0.08764075,0.1067335
0.000501188,-0.01519294,0.9907872,0.1396828,-0.1514285,-0.0153638
0.001966219,-0.01903187,0.9936823,0.01640888,0.1476014,0.04572334
3.86E-05,-0.02339457,0.9902511,0.1395061,0.1475474,-0.07637393
-0.002850383,-0.02241723,0.9926924,0.1394662,-0.03182922,0.1067914
4.76E-05,-0.02143558,0.9951291,-0.1069639,-0.09172609,0.1677634
-0.00189704,-0.01807625,0.992718,-0.045348,0.0276623,-0.01542079
-0.001416963,-0.02050514,0.9897831,-0.04540709,0.08737674,0.2287358
-0.001409833,-0.02000489,0.9927059,-0.04535008,-0.2113101,0.1066003
0.006309249,-0.01902264,0.9946524,-0.106794,-0.09177148,-0.01553513
0.002458228,-0.02337478,0.9931691,-0.04515383,0.02777582,-0.07655001
0.000521334,-0.0175742,0.9956388,-0.2298899,0.207026,0.04550932
0.001484122,-0.02291124,0.990253,0.07799996,-0.03206187,-0.01555818
-0.001412778,-0.02049614,0.9912429,-0.1682756,0.02774633,-0.07664482
3.61E-05,-0.01806581,0.9941763,0.07807469,0.08732933,0.106425
-0.001910216,-0.02004424,0.98638,0.07809266,0.02756429,-0.07673973
0.003420092,-0.02289481,0.9926847,0.1396115,0.02762349,0.1063877
0.002461485,-0.02191303,0.995611,0.01641506,0.02772017,0.04533959
-0.000927433,-0.02388354,0.9892756,0.07799202,-0.09185053,0.1063505
-0.002380066,-0.02050286,0.9902706,-0.04512706,0.02765063,-0.1988348
0.001002184,-0.0219411,0.9912323,-0.1683623,0.2067884,0.2284298
-0.000919677,-0.01707803,0.9980761,0.0163712,0.02743121,0.1673051
5.06E-05,-0.02094433,0.9965921,-0.1068059,-0.03227734,0.1671716
-0.002362861,-0.01901112,0.9975788,-0.04513215,-0.1516976,0.1059896
-0.000430147,-0.02045644,0.9975685,0.07800363,-0.03219637,0.04486532
0.003417613,-0.0219303,0.9926905,0.01640476,0.0871548,-0.07721172
-0.003329687,-0.02192634,0.9941555,-0.1681572,-0.09203334,-0.0162194
-0.005269218,-0.02001077,0.9922222,0.07825095,0.08725474,0.04481132
-0.004796423,-0.01906091,0.9897945,-0.1064854,-0.09208363,0.04471669
0.001485827,-0.02193774,0.9917186,-0.1064097,0.1471038,0.1667195
-0.000937967,-0.01760227,0.9912602,0.07830401,-0.0322159,-0.1385224
0.001014583,-0.02239936,0.9951226,0.01666606,0.02747994,0.1666458
0.001966064,-0.01951712,0.9931929,0.01654843,0.2067492,-0.07768156
-0.00044534,-0.02436844,0.9887857,0.01658565,-0.1517616,0.04451336
0.002463497,-0.02433329,0.9941365,-0.1065917,0.2067365,-0.2607093
-0.000944319,-0.01567627,0.9907854,-0.04497625,-0.0920627,0.04442079
-0.000438823,-0.01708067,0.9975891,0.01658115,-0.15164,0.1053178
0.004376376,-0.02242683,0.9902537,-0.229714,0.02770426,-0.07786466
0.000518696,-0.02145921,0.9912356,-0.04482608,-0.03206097,0.1052258
-0.000456028,-0.01857241,0.9902807,0.07844472,-0.2710175,0.04406416
0.005364897,-0.02140462,0.9995048,0.01682595,-0.03183042,0.1661445
0.005833042,-0.02191951,0.9941485,-0.1677172,0.1474384,-0.01699939
-0.000449516,-0.01564891,0.9951646,-0.1061163,0.08766289,0.1049798
-0.002866651,-0.01663321,0.9922408,0.01705743,-0.09163849,-0.07822144
0.000529229,-0.02774048,0.9892511,0.07869159,-0.03196189,-0.01715118
0.001483655,-0.024367,0.9887842,0.07868946,-0.03194054,0.1659014
0.005811038,-0.01663273,0.9912609,-0.04450788,-0.09161209,0.2878478
0.002944666,-0.01900116,0.9985481,-0.04454866,0.08776927,0.1044744
0.001474979,-0.02099123,0.9888047,0.01706622,-0.0914572,0.3485379
4.76E-05,-0.02143558,0.9951291,-0.106015,-0.151129,0.04325921
0.000999243,-0.01806809,0.9936889,0.1404118,0.2072932,0.1042536
-0.002372781,-0.01951737,0.9936827,-0.1059421,0.02801047,0.04315064
-0.00042829,-0.02336194,0.9956045,0.01736674,0.08779956,0.04311559
-0.000441773,-0.02193618,0.9922068,0.01730621,0.2669931,-0.07892092
0.000523191,-0.02047971,0.9936747,0.01730379,-0.0914808,-0.07905178
0.00389382,-0.01903343,0.9931943,0.01734007,0.2670729,0.1039444
0.002930251,-0.02048691,0.992213,0.2020724,-0.09149495,0.1649775
0.000519624,-0.02291196,0.9902537,0.1404531,0.02808082,-0.1402048
-0.002832564,-0.02771301,0.99412,-0.1059589,-0.09143406,-0.07921001
-0.000920766,-0.02047479,0.9946491,-0.04432493,-0.09139428,0.04283354
0.001482727,-0.02291424,0.9897663,0.01725096,0.08778045,0.04277973
0.003905135,-0.01852419,0.997577,0.07882689,0.2072436,0.042726
-0.001874419,-0.02578628,0.9936443,0.1404028,-0.09134976,-0.01835721
0.001482109,-0.02049099,0.9917274,-0.16751,0.08797501,-0.01831498
0.000524586,-0.02047671,0.9941614,0.1403789,-0.03148372,-0.01833031
0.000516528,-0.0195242,0.9922207,0.1403379,0.02851144,0.1646471
0.002459778,-0.02288653,0.9941452,-0.1059772,-0.03123602,-0.07958193
0.003888085,-0.01953068,0.9907583,0.07883255,-0.03123432,0.2255697
3.16E-05,-0.01904531,0.9917373,-0.04442296,-0.03132642,0.2255547
-0.000918442,-0.02192454,0.9941537,0.01719176,-0.09097998,-0.07964614
0.002444439,-0.01855526,0.9927117,-0.04440806,-0.03121035,0.1034083
-0.002356357,-0.02481614,0.9946238,0.01714861,-0.0313025,0.1033167
-0.002855185,-0.02000297,0.9931936,0.01714642,0.02856106,0.04219579
-0.001906493,-0.01712674,0.9902906,-0.04443401,0.2675595,0.1031148
0.000997071,-0.02049734,0.9907546,0.07870094,0.02852688,-0.01901622
-0.000930219,-0.01952528,0.9922218,0.01700985,0.02851877,0.1030799
4.56E-05,-0.01901532,0.9966038,-0.2908641,0.5662256,0.1030846
-0.006220234,-0.02143725,0.9956206,0.01712174,0.08810261,0.04198313
-0.001417123,-0.02535465,0.9853742,-0.1060563,-0.1508922,0.04196873
0.000534972,-0.01851471,0.999526,0.1402739,0.02841353,-0.01913267
-0.000920615,-0.0243538,0.9912192,0.01715391,-0.03142764,-0.01908948
0.000514209,-0.01371019,0.9966356,0.07871061,0.02841735,0.1030702
-0.001425955,-0.02246414,0.9849051,0.07865042,-0.2704394,0.1640277
-0.001921064,-0.01909773,0.9834661,0.01693469,-0.210632,0.1639367
0.000535586,-0.02530223,0.9936454,-0.1678987,-0.2105363,-0.1412634
0.000560538,-0.0257335,1.001915,-0.1062256,-0.1505977,-0.08026731
-0.000424097,-0.01462443,1.004903,-0.1677478,-0.09073444,-0.01930948
4.45E-05,-0.02241207,0.9931768,0.07873724,0.02870904,0.04170596
0.002421343,-0.0210295,0.9824778,-0.04457614,0.08840339,-0.01939511
0.000978782,-0.02102158,0.9839388,0.2018508,-0.03099963,0.04156293
5.55E-05,-0.02287333,0.9965804,0.01701728,-0.1504215,0.1636273
5.50E-05,-0.02432909,0.9951116,-0.1060252,0.2081311,0.04147773
0.003421491,-0.01852755,0.9970906,-0.1059307,-0.0308831,0.1635038
2.14E-05,-0.0161578,0.9907817,0.01720416,0.148347,0.1023648
7.62E-06,-0.0200668,0.9824855,-0.04431834,-0.03104937,0.2854781
-0.00046486,-0.0156819,0.9898117,0.01729622,-0.03091659,-0.01974055
-0.00140177,-0.01659314,0.998566,0.1404503,0.08865813,0.1022858
0.001499777,-0.02190775,0.9965851,0.2019875,0.02883511,0.1021956
0.002441338,-0.01953176,0.9907594,-0.04436644,0.02872385,0.04111442
-0.001424093,-0.02100539,0.9868605,0.01724819,0.02870653,-0.1419683
-0.001395267,-0.02239816,0.9956111,0.01722651,0.2677798,0.1632235
0.00149234,-0.01901424,0.9966027,0.07876377,0.02880327,0.04107443
-0.005743875,-0.02241939,0.9926946,-0.229091,-0.2699413,-0.02002583
-0.000925106,-0.02096904,0.9926997,0.07891388,-0.0306618,-0.02000067
-0.000440222,-0.02144793,0.993183,0.3251857,-0.03067959,0.04101563
0.001476374,-0.02098824,0.9892913,-0.105903,-0.1502145,-0.08105658
-0.001407817,-0.01806089,0.9951507,-0.1674201,0.0291183,-0.02000821
0.001498537,-0.0214255,0.9965881,0.07902581,0.02910048,0.04102726
0.002915373,-0.01906415,0.9883288,0.01740633,0.3875778,0.04103323
0.000501495,-0.01858669,0.9878469,0.01736513,-0.2699061,-0.02000948
-0.001409526,-0.02339865,0.9897655,0.0788829,-0.150125,-0.01994601
-0.003339913,-0.01903883,0.9931998,-0.1674518,0.08906031,0.2852074
0.001498071,-0.02288125,0.9951193,0.01726115,0.2682336,0.1630585
-0.005757665,-0.01759987,0.9922372,0.07875969,-0.09041083,0.04090969
0.000523502,-0.01950921,0.9946539,0.01719857,-0.09035355,-0.02019039
2.13E-05,-0.01664305,0.9902921,0.1402754,-0.03056594,-0.02029922
-0.005727754,-0.01996015,1.000495,-0.2291962,-0.03043372,0.162834
-0.004286584,-0.01560681,1.002467,-0.04438629,-0.1499689,-0.02036327
4.28E-05,-0.01902132,0.9956304,0.01722836,-0.03050738,0.1017788
-0.001409833,-0.02000489,0.9927059,-0.1673927,0.0888792,-0.08130335
0.003901874,-0.0243502,0.9912155,-0.04416126,0.02911218,-0.08127789
-0.000906666,-0.02432381,0.9960855,-0.2904961,-0.2098085,0.04078741
6.26E-05,-0.02237309,0.999503,-0.04416639,0.08906957,0.04077451
0.003428927,-0.02142106,0.9970731,0.01735128,-0.03048438,0.04072326
-0.003326746,-0.02579936,0.9916989,0.01740683,0.1486326,0.2848285
0.004369401,-0.02244183,0.9878205,0.2019843,0.2082889,0.1016889
3.61E-05,-0.01806581,0.9941763,-0.04433096,-0.03081937,0.101657
-0.000915648,-0.01755429,0.9990464,-0.04427526,-0.03081819,0.04057643
-0.002851618,-0.01757072,0.9966148,0.07887882,-0.03079823,0.04058296
0.000517767,-0.02000646,0.9922178,-0.04433805,0.08877635,0.04060866
-0.000924648,-0.02824181,0.9863295,0.01725722,0.1484328,0.1016638
-0.000455722,-0.02196617,0.9873404,-0.1058822,-0.1505183,0.1015553
0.004391097,-0.02433485,0.9936483,-0.04430636,-0.09063639,0.04043655
-0.001398212,-0.02288941,0.9941482,0.01736622,0.02897582,0.04032824
-0.006698759,-0.01852011,0.9995316,0.01746044,0.08865108,-0.02067528
-0.001415724,-0.0209874,0.9897802,-0.0441784,0.1484766,0.1624201
0.002930095,-0.02097216,0.9917234,0.07911091,-0.3294782,-0.0208533
0.002949775,-0.02480918,0.9951064,0.1407445,-0.03061872,0.04027907
-0.000896128,-0.02624082,0.9980204,0.1408053,0.08887096,0.1012706
-0.003344098,-0.01904783,0.9917399,-0.1054911,0.2083515,-0.02081976
-0.002383318,-0.01760035,0.9917479,0.2023972,0.02897362,-0.02085112
0.001011331,-0.01949685,0.9966002,-0.0439766,-0.03077445,0.04020456
-0.001407199,-0.02048415,0.9931896,0.1408907,-0.09057881,0.1011836
-0.000432471,-0.01900668,0.998064,-0.04388559,0.02899579,0.1010949
0.000512498,-0.01904795,0.9912503,0.01770911,0.02901567,0.04001502
0.001475912,-0.01807973,0.9917421,0.07932314,0.08869087,0.0399456
2.64E-05,-0.0180868,0.99077,-0.04387495,0.08865453,0.03991459
0.000540703,-0.02238172,0.9980428,0.01771971,0.1484237,-0.02110755
0.002461174,-0.02288353,0.9946319,0.01779415,0.1483874,0.1009205
-0.000908678,-0.02190355,0.9975601,0.01790718,0.02868391,-0.02111193
0.001487218,-0.026299,0.988286,0.07955963,0.08835952,0.03979081
-0.003822468,-0.01564544,0.9961404,0.1410186,0.08830479,-0.02134619
-0.000917354,-0.01852779,0.9975806,0.07935998,0.08826894,0.03965262
-0.002379133,-0.01759136,0.9932079,0.01768205,0.02852145,-0.0214267
-0.000447197,-0.02146293,0.9907499,-0.2286725,0.3271565,-0.02145729
-0.004778446,-0.01950717,0.9956312,-0.1054028,0.08803034,0.1005137
-0.000924177,-0.02242179,0.9917176,-0.04375018,0.2672611,-0.02157575
-0.004288454,-0.02579408,0.992673,-0.1052541,0.08792184,0.1004145
-0.000939517,-0.01809052,0.9902841,-0.04377574,0.1476544,-0.1437146
0.002926839,-0.02243391,0.9892814,0.01774142,0.2073495,0.2224704
0.00292715,-0.02146341,0.9902606,-0.04383978,0.08779711,0.0393133
0.004871023,-0.02288473,0.9941434,-0.04382338,-0.1510659,-0.08289093
0.001006679,-0.0209616,0.9936714,0.07934946,-0.2107004,0.1001484
-0.000921383,-0.01805153,0.9966104,-0.04392604,-0.1508179,-0.02190223
-0.000936572,-0.01759927,0.9917468,-0.2285862,0.08819938,0.100146
0.004849792,-0.01953596,0.9897842,0.07928265,-0.09100884,0.03904818
-0.0042931,-0.02289457,0.9936637,-0.04389609,0.1478958,0.03897996
-0.000430303,-0.02094169,0.997079,0.0176986,-0.09111784,-0.1441001
-0.000929753,-0.01806953,0.9936904,-0.04378582,-0.03146065,0.1610943
0.000524431,-0.02096196,0.9936717,0.01779498,0.1476852,0.1000089
-0.002378205,-0.01904411,0.9922258,-0.04396032,0.08784433,0.1608936
-0.001416808,-0.02001989,0.9902727,-0.04386641,0.08788412,-0.08336902
0.002465669,-0.02190403,0.9970708,0.07928718,0.2073471,-0.02234979
-0.001884797,-0.01901976,0.9961185,0.1408238,0.08779476,-0.02245589
0.001960329,-0.02001437,0.9907568,-0.1055887,0.147565,0.0995355
0.001503029,-0.02481026,0.9951075,0.1407796,0.08763049,-0.08352475
0.000527687,-0.01950021,0.9961137,-0.04403529,-0.03182784,0.09943873
0.003412655,-0.0200013,0.9927022,0.07913778,-0.09163088,-0.02270687
-0.002367206,-0.02386963,0.9917099,0.07921241,0.1473684,0.03831284
-0.002853639,-0.02387898,0.9902504,-0.04398551,0.1472208,-0.02264978
5.19E-05,-0.02094133,0.9970786,0.1407464,-0.09184828,-0.02264051
0.001007764,-0.0219291,0.993179,-0.1057046,0.1472075,0.0383791
0.000516994,-0.01806845,0.9936893,-0.04412897,-0.09188037,-0.0226986
-0.001898439,-0.02244351,0.9883119,0.07908291,0.02760207,-0.02270842
-0.005748682,-0.02436939,0.9892763,0.2022368,0.02758615,0.09935996
-0.002357131,-0.02287813,0.9960954,0.01755745,-0.09183428,-0.08373842
-0.002853794,-0.02436424,0.9897608,0.1405565,0.02774194,-0.0837099
-0.000931462,-0.02340729,0.9883053,-0.04427741,0.08751259,-0.08377728
0.000537758,-0.02287297,0.99658,0.07889602,0.08736516,-0.1448357
0.00100389,-0.0209676,0.9926982,-0.1058798,0.02763759,0.1603404
-0.002375726,-0.02000861,0.99222,-0.04434261,0.08720193,0.03829085
-0.000932387,-0.01759028,0.9932068,0.01721398,-0.0322746,0.03826192
-0.000446109,-0.01806617,0.9941767,0.07878994,0.08730182,0.09922418
0.001975051,-0.02192239,0.9941515,0.07869098,-0.03224995,-0.02286363
-0.001406115,-0.02145165,0.9926971,0.01709127,0.02765232,-0.08390275
0.001501016,-0.02239,0.9965822,-0.106048,-0.2113229,0.03816583
-0.000442546,-0.01999818,0.9936783,0.017203,-0.03199751,-0.08390278
0.003424125,-0.0190068,0.9975744,-0.1675533,0.02784816,0.2212927
-0.002371235,-0.02339337,0.9907396,-0.2291145,0.2069857,0.09916654
0.000515288,-0.01904195,0.9922236,0.2019502,-0.0917763,-0.1449994
-0.002360075,-0.02336938,0.9946327,-0.04436501,-0.09181114,-0.02285407
0.001002961,-0.01951485,0.9936802,0.2020617,-0.09186472,0.0381658
0.000518851,-0.02097396,0.9917252,-0.04430625,0.2068739,-0.02284217
-0.002373403,-0.02145837,0.9917245,0.01732764,0.08720952,-0.02277514
-0.001402086,-0.0219279,0.9936674,-0.1058893,0.08715627,0.1602845
-0.002843253,-0.02191699,0.9956151,-0.2291062,0.02741022,0.1602174
0.006787623,-0.01806077,0.9941712,0.1403803,0.02735704,0.1600736
-0.001406581,-0.0229074,0.9912283,-0.04445332,0.02734147,0.09886222
5.09E-05,-0.02433809,0.9936516,0.01714208,0.02736343,-0.08427382
3.58E-05,-0.01903631,0.9931973,-0.1059973,0.02744164,-0.08430214
-0.004785264,-0.01903691,0.9936875,-0.1060189,-0.09207247,0.3428378
-0.00236705,-0.02338438,0.9921995,-0.04442352,0.02748525,-0.02350157
0.004372195,-0.01807157,0.9927132,-0.1060233,0.3261779,0.1595206
0.001488155,-0.01902324,0.9951427,-0.04444734,0.02737879,0.09836743
-0.001877054,-0.02530702,0.9931607,-0.1061438,-0.03231097,0.1593117
-0.004310919,-0.01759879,0.9922361,0.01706864,-0.03236423,0.0371676
-0.001910371,-0.0205295,0.9858904,0.0785481,-0.03226728,0.09809293
-0.000413257,-0.02429945,0.9999783,-0.04468771,0.2665004,0.03707435
-0.002853479,-0.01902947,0.9946594,0.01685,-0.09197289,-0.02400172
3.77E-05,-0.02194182,0.9912331,-0.1063663,0.0275284,0.09804912
-0.001870852,-0.02335403,0.9970654,0.01686575,0.08722425,0.03693479
4.42E-05,-0.01901832,0.996117,0.0167672,0.02744056,-0.08517064
-0.000418375,-0.02721996,0.995581,0.07828571,-0.03236184,0.1589969
-0.000930841,-0.02146628,0.9902636,0.01658979,-0.03228367,0.03696819
0.003431717,-0.02141506,0.9980464,-0.1065875,0.08714265,0.09793209
-0.000432164,-0.02240044,0.9951236,0.01664481,-0.0921956,0.09788576
4.19E-05,-0.01756856,0.9966125,0.01660457,0.08711148,0.1587732
-0.000912089,-0.02385055,0.9946286,0.01656436,0.08711465,0.0976592
0.001019385,-0.02481362,0.9946213,0.0165242,-0.1520478,0.09768987
-0.001884335,-0.02192827,0.9936677,0.2014122,-0.03262119,0.09758636
-0.002360227,-0.01949037,0.9980626,0.01671461,0.02716897,0.03653011
0.001964358,-0.02049063,0.9917271,-0.04492329,0.08703415,-0.08555563
0.002933818,-0.01805465,0.9956341,-0.2295629,0.08701868,0.09750622
0.002458073,-0.02386003,0.9926795,0.0167149,0.08701175,0.0974527
-0.002365962,-0.01998762,0.9956264,0.1398311,-0.0326147,0.09731113
0.002442267,-0.02098452,0.9897773,-0.1064641,-0.2715893,0.2193055
0.001487689,-0.02047899,0.9936739,-0.04481021,0.02721626,0.2192025
-0.000906354,-0.0233533,0.9970647,0.01676632,0.08689371,0.09705985
-0.000923404,-0.0243598,0.990246,0.01676459,0.08691591,0.1580441
0.004376994,-0.02485009,0.9882925,-0.04493139,-0.2118829,0.218971
4.67E-05,-0.02434708,0.9921918,0.07828153,0.08692276,0.03577989
-0.002855962,-0.02242923,0.9907458,-0.04495392,-0.03257215,-0.08630492
0.004871645,-0.02094373,0.9961016,-0.106437,-0.09222414,-0.02524365
-0.000931609,-0.01516402,0.9956546,-0.04474444,-0.151895,0.09686622
0.000530321,-0.01997946,0.9965976,0.01679331,0.02744952,0.03584921
-0.000935332,-0.01808153,0.9917439,0.07836978,-0.0324092,0.09679535
0.0038949,-0.0243652,0.9887823,0.07823269,0.1468228,0.09673126
0.003435591,-0.02237657,0.9985272,-0.1681592,-0.09218954,0.03563773
-0.001402552,-0.02338366,0.9921987,-0.0450816,0.1467166,0.03549711
-0.001403787,-0.01853715,0.996121,0.01647589,0.1467199,-0.02544283
0.001491101,-0.01853199,0.9966056,0.07805279,0.02716864,-0.1475657
4.59E-05,-0.02240908,0.9936633,-0.04516305,0.1466517,0.03565067
-0.004313553,-0.01711954,0.9917523,-0.04512565,0.08675583,0.09669289
-0.002835661,-0.02432525,0.996087,0.1395497,0.08672195,0.1576201
-0.000439756,-0.01999218,0.9946517,0.01635337,-0.03286656,0.0965651
0.001493113,-0.02095225,0.995131,0.07791106,-0.09255569,0.1574925
-0.000918287,-0.02143929,0.9946433,-0.04520791,0.08673307,0.03533147
0.003418857,-0.0180483,0.9966071,-0.10671,0.02681865,0.09637412
-0.004781084,-0.02339217,0.991228,-0.04511379,0.08653414,0.03524273
0.002442884,-0.02340777,0.9878161,0.0781187,-0.2121516,-0.08680306
-0.001869306,-0.02723003,0.9941222,-0.1066368,0.146291,0.0353075
0.000537136,-0.02481398,0.9946216,0.1396941,0.08645187,0.09619681
-0.000432471,-0.01900668,0.998064,0.07809511,0.1460362,0.09617182
-0.000420072,-0.01946494,1.001954,-0.04508211,0.1459654,-0.2701452
0.001003116,-0.01902959,0.9941698,-0.168182,-0.1528888,-0.0259179
-0.001412623,-0.02001089,0.9917325,-0.106542,-0.2124564,0.09614637
0.003408626,-0.01952504,0.9917318,0.01667097,0.08642506,-0.02595674
-0.000909762,-0.02093605,0.9980527,0.01663068,0.08641032,-0.02598165
-0.002865411,-0.01711546,0.9922379,0.07816869,0.02651507,0.03506135
0.002452342,-0.01999302,0.9941628,-0.04496994,-0.03317361,0.09606598
0.001985433,-0.02432465,0.9955968,0.1397825,0.02652342,0.03495413
-0.00045231,-0.02001917,0.990272,0.2629375,0.146026,-0.08714881
0.00242507,-0.01374774,0.9903079,-0.1066495,0.02641929,-0.02618233
0.00101381,-0.02046135,0.9965943,0.1398168,0.145922,-0.02626445
0.003398551,-0.02051654,0.9873462,-0.04495815,0.02624031,0.1567996
0.000513583,-0.02001545,0.9907579,-0.1680388,0.145687,0.1567751
-0.000445025,-0.01903367,0.9936842,0.07831113,-0.03364978,0.1566548
0.000517616,-0.01612744,0.9956477,-0.0448857,-0.03360753,-0.02638124
0.001961257,-0.02146713,0.9897747,-0.04484867,0.1457198,-0.02648227
0.001003116,-0.01902959,0.9941698,-0.04485038,0.02615091,0.09559086
-0.000436193,-0.02192418,0.9941533,0.01674551,-0.0336874,-0.08752193
0.001951031,-0.01857961,0.988819,0.07832206,0.1456775,-0.02642081
-0.002385024,-0.01857385,0.9902822,0.1398599,0.1456447,0.09565225
-0.001411694,-0.02146365,0.9907506,-0.04491505,0.02609473,0.03457927
-0.002385797,-0.01663585,0.9917538,0.1398567,0.1456166,0.09558451
5.47E-05,-0.02093533,0.9980519,0.07816085,0.02610425,0.03449245
0.002917235,-0.01760539,0.990284,-0.04501644,-0.03382782,0.03446828
-0.001396351,-0.02143066,0.9961035,-0.04490186,-0.1532462,0.278543
0.000993508,-0.01856534,0.9912528,-0.0450002,-0.2726271,-0.02664773
0.002951948,-0.02237993,0.9980409,-0.04492434,0.08598526,-0.02674844
0.001004818,-0.02242035,0.9917161,0.01671032,-0.03360234,0.09534417
0.001003734,-0.02145285,0.9922086,0.01668932,-0.3323061,-0.0267771
-0.003328754,-0.01901484,0.9970928,-0.04477453,-0.1530164,0.1563067
0.001975984,-0.01901088,0.9970888,0.01680195,-0.03351348,-0.08781599
-0.000931614,-0.01952828,0.9917351,0.01681951,-0.1531762,-0.0878782
-0.004308284,-0.01807805,0.9927198,0.07849267,-0.03356048,-0.02687249
0.000512654,-0.0185627,0.9917399,-0.1678749,-0.09318422,0.2172134
-0.001390615,-0.02093341,0.9985397,-0.1062985,-0.03344934,-0.02704334
-0.002873936,-0.01761871,0.9888285,-0.2293795,0.08607228,0.03402014
0.001477151,-0.01856198,0.9917392,0.07854843,-0.03338406,-0.1491878
-0.006712091,-0.02097335,0.9927041,0.1401441,-0.03337967,-0.02707556
0.000523502,-0.01950921,0.9946539,0.1401421,0.02631763,-0.02711821
-0.000916892,-0.02143629,0.9951299,0.01694495,0.02639714,-0.08813282
-0.001392632,-0.02287741,0.9960947,0.01696235,0.02649538,0.2170679
0.003891963,-0.01612793,0.9951584,0.1400975,-0.1526917,-0.08812231
0.003421024,-0.0199833,0.995622,-0.1062174,0.02669138,0.03397072
0.001508297,-0.02576877,0.9960749,0.1401517,-0.1526085,0.09488091
-0.005264105,-0.02145453,0.9927,-0.04458502,-0.09283648,0.03382804
0.002950086,-0.02383868,0.9960855,0.01689449,-0.1525816,0.03380472
-0.000440995,-0.01950993,0.9946546,-0.04460825,-0.09280968,0.03380058
-0.001403787,-0.01853715,0.996121,0.01692934,-0.1524986,-0.02729056
-0.002392931,-0.02150036,0.9849116,-0.1061517,0.0267904,0.09470691
-0.00043108,-0.02336794,0.9946312,0.07846494,-0.3317008,-0.08840476
0.00052288,-0.02145021,0.9926956,0.0783664,0.02694822,0.1557477
-0.001866357,-0.02237453,0.9995044,-0.04475315,0.1465065,0.09458004
-0.000457268,-0.01809016,0.9902837,-0.1063332,-0.2120412,-0.08858898
-0.000440689,-0.02290368,0.9917142,0.07845774,-0.09246417,0.03352382
-0.002360849,-0.02143138,0.9961042,-0.04473928,-0.1521535,-0.02750947
0.002452649,-0.02338678,0.9912224,0.01679844,0.02719133,0.03349709
0.000526292,-0.01950321,0.9956272,-0.1063405,-0.09235997,-0.02757452
-0.003333249,-0.01999434,0.9946539,0.07854716,-0.09228151,0.09449996
-0.001897662,-0.02001725,0.9907598,0.01690895,0.08711948,0.03340926
-0.002388742,-0.0171271,0.990291,0.07854328,-0.03243201,0.09439682
0.00102109,-0.02384012,0.996087,0.1400615,-0.09221553,-0.02766574
0.00342939,-0.02432957,0.9946223,0.01686448,0.146822,-0.02770769
0.001472811,-0.01905623,0.9897897,-0.04467694,0.1465813,-0.02786456
3.97E-05,-0.01999782,0.993678,-0.04471752,0.08689193,-0.02788703
-0.000936878,-0.01420552,0.9946872,0.01689754,-0.1521952,-0.08901566
-0.000438051,-0.01901868,0.9961174,-0.1062168,-0.2118385,0.03305056
4.34E-05,-0.01708031,0.9975887,-0.2292593,0.2064279,-0.02803965
0.001988067,-0.0248039,0.9960804,0.01709026,-0.211888,-0.02804276
0.002935519,-0.02144541,0.9931804,0.01718481,-0.09238618,-0.1501624
0.001488773,-0.02144649,0.9931815,0.01714391,-0.1520944,-0.08902094
-0.001396351,-0.02143066,0.9961035,0.017045,-0.09207907,-0.0890433
0.001479475,-0.02001173,0.9912437,0.01710095,0.1469395,-0.150076
-0.000928979,-0.02000753,0.9922189,0.07877375,0.206598,0.03308606
0.001002499,-0.01660634,0.9961309,0.01705789,0.02731608,0.09416985
0.003401034,-0.01711678,0.9912598,0.2016745,-0.09231044,0.3381121
-0.00236689,-0.01853487,0.9966086,-0.04460167,-0.0325579,0.03288489
0.003425822,-0.02676182,0.9912012,0.1402084,0.08700015,0.03286274
-0.00092061,-0.01998954,0.9951386,0.1401483,0.2065018,-0.0282464
0.001988378,-0.0238334,0.9970595,0.07849079,0.02722007,-0.15027
0.001012414,-0.02046436,0.9961075,-0.04462893,0.08704764,0.09394101
0.001957854,-0.01468561,0.9946821,-0.04465023,0.08695707,-0.02827433
0.001488466,-0.01805274,0.9961218,0.1400632,-0.2715347,0.09385855
2.42E-05,-0.0161518,0.9917549,0.0168469,0.08696377,0.09375983
0.002443506,-0.02146677,0.9897743,-0.04477187,0.08694836,-0.02830198
0.001500394,-0.02433101,0.9946238,-0.04473496,-0.09233335,0.03276308
-0.00140193,-0.02144265,0.994157,-0.04471746,-0.3313079,-0.02826925
0.001005595,-0.0199941,0.9941639,-0.1062782,-0.0323898,-0.0282529
-0.001872403,-0.02384228,0.9960892,-0.167897,0.2066664,0.03263962
-0.002842635,-0.02434024,0.9936538,0.01695192,0.2064255,0.27664
-0.003804032,-0.02336446,0.995607,0.01689197,-0.09248582,-0.1507224
0.001492495,-0.01852899,0.9970921,-0.04472682,-0.03282688,0.0934317
0.00293273,-0.02145141,0.9922071,-0.1063069,0.2062299,-0.08987004
0.000502734,-0.01906894,0.9878439,-0.1677903,0.08671641,-0.0288043
-0.000939672,-0.01857577,0.9897945,-0.1060786,0.2659301,-0.0287873
-0.001386435,-0.02528867,0.99608,-0.04444449,-0.09252372,-0.1508102
0.001477769,-0.02098523,0.989778,0.01711221,0.08682127,0.1543543
0.001503495,-0.02335451,0.9965763,0.07876563,-0.03276736,-0.02883223
0.00198342,-0.02190439,0.9970713,0.07888484,0.02697516,-0.02888175
-0.002867117,-0.01808896,0.9907722,0.2020776,-0.03263903,-0.1509237
0.002918318,-0.0185729,0.9897915,0.01737919,0.08682528,0.0932498
0.002937688,-0.02338042,0.9921954,0.0790323,0.2659826,0.1542772
0.002922192,-0.0195344,0.9902723,-0.0442041,-0.2120448,0.09320726
0.004866372,-0.02434948,0.9912148,0.1405862,0.0868174,0.03209899
-0.001883558,-0.01950201,0.9961156,-0.2288858,0.02716556,-0.151049
-0.001408593,-0.02048715,0.992703,0.07906076,-0.09229185,-0.1510318
-0.001891309,-0.02194326,0.9912345,0.1406751,0.02726617,0.03207391
-0.001900296,-0.019538,0.990276,0.07907483,0.206517,-0.09008291
0.000523191,-0.02047971,0.9936747,0.07903349,0.08689063,-0.09010395
0.001003738,-0.01708859,0.996128,0.07901159,-0.03266059,0.03187658
-0.003808835,-0.0209502,0.9961082,0.01746947,0.08689754,0.03183653
0.002443195,-0.02243727,0.9887952,0.01750554,0.02717057,0.03185406
0.00149234,-0.01901424,0.9966027,0.01759959,0.08686686,0.0317374
0.00245296,-0.02241627,0.9922016,-0.04392344,0.1465257,0.1536224
0.003413428,-0.0219393,0.9912305,-0.1054272,-0.03271821,-0.0296591
0.000997537,-0.01904159,0.9922233,0.1409022,0.2063759,-0.02962186
0.001018301,-0.02384612,0.9951137,-0.04404822,0.08691861,0.2144951
0.002940788,-0.02240392,0.9941478,0.01752732,0.02717282,0.09233911
0.001012255,-0.02531387,0.9916985,0.1407198,0.0868879,-0.02981672
0.001945452,-0.01859161,0.9868726,0.01757994,0.08689137,0.03121192
0.002456989,-0.02289253,0.993172,0.07909744,-0.152177,0.1533084
-0.002376814,-0.02340537,0.988793,0.01751654,-0.1522673,0.09220133
0.001487844,-0.01999374,0.9941635,0.2023066,-0.09253327,0.03105601
-0.000447352,-0.02194818,0.9902602,-0.04404773,0.1465422,0.03099785
-0.003810074,-0.02046795,0.9961112,-0.04401175,-0.212137,0.03099725
0.001955216,-0.01857061,0.990279,0.2022985,-0.0329045,0.153094
0.000516839,-0.0185537,0.9931998,0.0175224,-0.03293823,0.03099601
-0.003812246,-0.0228972,0.9931768,0.1407536,-0.3914295,0.09202491
-0.000922005,-0.01999254,0.994652,0.07911456,-0.03266794,0.03110976
0.00244738,-0.02242827,0.9902551,-0.04408331,0.08687145,-0.02988215
0.001475446,-0.01953548,0.9902734,-0.0440998,-0.03269002,-0.09103687
3.37E-05,-0.02146557,0.9902628,-0.105584,0.02700642,0.03098318
-0.00093208,-0.02098403,0.9902665,-0.04402783,-0.03273915,0.03088677
0.00052846,-0.02143821,0.9946421,0.1408589,-0.09250353,-0.03023906
0.004851654,-0.01807721,0.9917395,-0.1671512,-0.1522491,0.03088593
-0.001411073,-0.01952264,0.9927088,0.01769678,-0.09245881,-0.03014405
4.20E-05,-0.01708331,0.997102,0.1407923,-0.1522045,0.03092333
-0.000449672,-0.01613416,0.9946751,0.07917263,-0.09233915,0.03086532
0.00391505,-0.02238221,0.9975535,0.2023264,-0.09233575,0.09181774
0.000540392,-0.02335223,0.9970636,0.07912849,0.08693394,-0.2133493
-0.001868218,-0.02383328,0.9975491,0.1406847,-0.0326736,0.09179793
-0.002859059,-0.01904147,0.9927129,-0.2288648,-0.2118614,-0.1522821
-0.00238115,-0.01953536,0.9907631,0.07912052,0.2065177,-0.03022344
0.002940632,-0.02288917,0.9936582,0.1405994,0.08691003,-0.1523403
-0.000450756,-0.01516666,0.9951676,0.1404421,0.0270892,0.03074791
0.001501789,-0.02432801,0.9951105,0.01722524,0.02699887,0.03070929
0.002925449,-0.01807265,0.9927143,0.01714558,-0.2719498,-0.0303013
-0.003821078,-0.02000669,0.9927077,0.07872165,-0.03281792,0.09173831
-0.001420686,-0.02342265,0.9858724,-0.04443702,-0.03272039,0.03061275
0.004386451,-0.02143534,0.9946392,-0.1060755,0.1465307,0.09156547
-0.002375726,-0.02000861,0.99222,-0.1061163,-0.09257498,-0.03058939
0.001484588,-0.02145549,0.9917216,0.07871308,-0.2120134,0.03042103
0.00100265,-0.02048535,0.9927011,-0.04452292,-0.03266841,0.2135097
0.003429083,-0.02093581,0.9975626,0.01707255,0.02712179,-0.03066568
0.001508608,-0.02479826,0.997054,0.01703178,-0.09231679,-0.09158
0.003413428,-0.0219393,0.9912305,0.2633427,0.02718492,0.1524997
-0.004791772,-0.01759616,0.9927231,0.0170277,0.1467054,0.09139368
0.002477291,-0.02478855,0.9985133,0.07860392,-0.1519996,0.09141307
-0.002369218,-0.02144937,0.9931844,0.07852452,0.02736377,0.03030706
-0.003800932,-0.02238796,0.9975594,0.07850325,-0.09211271,0.09127934
0.000999554,-0.01709759,0.9946681,-0.1063108,-0.0322666,-0.0919622
3.49E-05,-0.02194782,0.9902599,-0.1062352,0.02742928,0.09112684
0.000525208,-0.01853571,0.9961196,-0.04455689,0.1469581,0.03008815
4.28E-05,-0.01902132,0.9956304,0.01692262,0.08728707,0.03010785
0.001006835,-0.02047635,0.994161,0.0169207,0.3261366,-0.03095948
0.000525359,-0.02241471,0.9926898,-0.04469813,-0.09217951,-0.1529605
0.001955838,-0.01662961,0.9922372,-0.1063556,0.08705245,0.09117718
-0.00045076,-0.01953092,0.9912481,0.01685713,0.0272502,-0.03091969
-0.001867907,-0.02286278,0.9985284,-0.2294577,0.08696517,0.03022531
-0.003795978,-0.02868123,0.9936282,0.1400872,-0.152047,0.03005319
0.003404441,-0.01953404,0.990272,-0.106189,0.08702812,0.03001545
-0.001409833,-0.02000489,0.9927059,-0.044458,0.08714398,0.02997776
-0.000433097,-0.02531195,0.9921863,-0.04432478,-0.03235126,0.09093131
-0.00139604,-0.02046015,0.9970826,-0.1058667,0.027326,0.02988343
0.00051281,-0.01807745,0.9922295,0.01732609,0.02729169,0.02980756
0.001965131,-0.02242863,0.9902555,0.1405188,-0.271526,-0.03122108
-0.000443168,-0.02193918,0.9917201,0.01737923,0.1466653,0.2738507
0.001958934,-0.02001737,0.9902701,0.079013,0.08673184,-0.0924212
-0.000903409,-0.02286206,0.9985276,0.01737423,0.08664165,-0.03135227
3.44E-05,-0.01903931,0.9927106,0.07894999,-0.03285298,-0.03123622
-0.002367046,-0.01902012,0.9961188,0.0171759,0.1464921,0.1519107
0.000996453,-0.01807409,0.9927158,-0.04442389,-0.09251974,-0.09228314
0.001017061,-0.02336386,0.9951167,-0.1059657,0.02698224,0.02977679
0.002466909,-0.02238628,0.9970679,-0.04433172,0.02691083,0.02972023
1.85E-05,-0.01664905,0.9893188,0.07889979,-0.03287213,-0.09231862
-0.00383301,-0.01809268,0.9902863,-0.105876,0.0268996,-0.03124979
-0.001399607,-0.02289241,0.9936615,0.01735547,0.08667131,-0.03130638
0.001483504,-0.02048799,0.9922141,0.07891193,0.1463679,-0.03132457
0.001482886,-0.01806473,0.9941753,0.2020853,0.086585,0.09071629
-0.000924018,-0.01757228,0.9961265,0.01725148,-0.03298459,-0.03139918
3.20E-05,-0.02243907,0.988797,0.2020225,0.2058847,0.2127391
-0.001420833,-0.01517938,0.9932218,0.0172468,0.02645361,0.1515958
-0.001412468,-0.01952564,0.9922221,0.07878403,0.02645796,0.02944216
0.001484592,-0.01709123,0.9956411,0.01714551,0.2056348,-0.03158596
-0.000924333,-0.02290704,0.9912279,0.01711001,0.1457669,-0.03147951
-0.000434798,-0.02192119,0.9946399,-0.04447037,0.1456964,-0.03151663
0.003873056,-0.01422891,0.9903038,-0.04437584,0.02620271,0.09050531
-0.003349673,-0.01469557,0.9937127,0.01716143,-0.1531153,-0.09263942
0.001948397,-0.01810036,0.9883354,-0.1675949,0.08599872,0.02940178
0.001005591,-0.02435836,0.9902445,0.01721503,0.08590949,-0.09273252
0.002453271,-0.02144577,0.9931808,0.07879098,0.02624006,0.02936631
-0.002843875,-0.02385799,0.9936568,0.01722979,-0.03341072,0.02932941
0.001474362,-0.01856798,0.990766,0.07870907,-0.03334998,0.09028374
-0.002404086,-0.01716009,0.984938,0.07864888,0.0264036,-0.2149964
0.000989012,-0.01954484,0.9888139,0.01708786,0.02635165,-0.03192534
-0.001885574,-0.02144601,0.9936706,0.1401649,-0.03344941,-0.03198109
-0.001883406,-0.02338102,0.9926858,-0.04466854,-0.09330671,-0.09302795
4.30E-05,-0.01853607,0.9961199,-0.04463177,0.08607683,0.2120256
-0.002365496,-0.01853187,0.997095,-0.1677129,-0.03345459,0.08991113
-0.003325808,-0.01852359,0.9985558,0.1401763,-0.1530048,-0.03226084
-0.001893633,-0.02049351,0.99173,-0.04450247,-0.03338928,0.02873252
-0.00188449,-0.02241351,0.9931782,-0.1062376,0.08622609,-0.03225642
-0.002372163,-0.02194062,0.9917216,-0.1062008,0.3252271,-0.03223509
0.003399328,-0.01809029,0.9897941,-0.1677424,-0.09318171,0.08986442
0.000524275,-0.02144721,0.9931822,0.1401855,-0.1529827,-0.09331781
0.002437002,-0.01566175,0.9927293,-0.1061875,0.2055919,-0.09327723
-0.000915959,-0.01852479,0.9980673,0.01698634,-0.03345662,0.1509004
-0.000914724,-0.0233713,0.9941449,0.01696503,0.08595242,-0.03222431
-0.00043929,-0.01853643,0.9961203,0.1400422,-0.153171,0.02873069
-0.001879999,-0.02579828,0.9916978,-0.04479107,-0.1531851,0.2117448
4.68E-05,-0.01949757,0.9966009,0.078383,-0.03368192,0.02862034
-0.00188728,-0.02241951,0.992205,-0.1064115,0.1454578,0.08959474
0.001499155,-0.02384876,0.9946268,0.01691732,0.0857136,0.02847185
-0.003341312,-0.02340609,0.9887937,-0.1062024,0.2050856,0.08942726
-0.001410917,-0.01903739,0.9931984,0.01689409,-0.2131724,0.08939162
-0.001409056,-0.01757864,0.9951537,-0.04470007,0.1454298,-0.03267495
-0.002374331,-0.02000561,0.9927067,0.01685695,-0.1534613,-0.1548463
0.001499621,-0.022393,0.9960954,-0.2910168,-0.09361318,0.02832174
-0.002865105,-0.02050922,0.9892976,-0.04455097,0.02596526,-0.09377289
0.000528926,-0.01998246,0.9961108,0.01700587,0.08579443,-0.1547996
0.003405681,-0.02001629,0.9902691,-0.0445164,-0.1532913,-0.03277617
-0.001410144,-0.0209754,0.9917267,-0.167617,0.02596116,0.08932403
-0.001424711,-0.01858213,0.9888216,-0.04448203,0.02605989,0.211405
-0.003342703,-0.01904483,0.9922265,0.01709407,-0.09337743,-0.03276769
-0.00284124,-0.02433724,0.9941405,-0.04450564,-0.09329765,0.08925581
0.000540854,-0.02626073,0.9946129,-0.04439174,0.2054529,-0.1548402
0.001002495,-0.0209706,0.9922115,0.140302,-0.09330718,-0.03274001
4.57E-05,-0.02289433,0.9931738,0.07870232,-0.2128385,-0.09382425
0.000529388,-0.02289097,0.99366,-0.1059959,0.02625674,0.08924799
-0.001394182,-0.02336566,0.9951185,-0.1059594,0.08606675,0.2111757
0.004858162,-0.01951797,0.992704,-0.04422874,0.02628451,0.02803279
-0.00191269,-0.01471548,0.9903053,0.01730832,-0.0931906,0.08908458
-0.00044084,-0.01902468,0.9951441,-0.2291424,0.08609893,-0.03295217
0.002922041,-0.01565539,0.9937021,-0.0443713,0.02635419,0.1502161
-0.001414022,-0.02437815,0.9873265,-0.04443159,-0.09312101,0.1502191
0.003412037,-0.01757804,0.9946634,0.07864535,0.02636295,0.02810553
-0.000941844,-0.02100503,0.9868601,0.01706502,-0.152899,-0.03299763
0.00051312,-0.01710694,0.9932086,-0.04451531,0.02637175,0.02809251
-0.000915035,-0.0243418,0.9931658,0.1401786,0.02631986,0.02807638
0.000534191,-0.02530522,0.9931588,0.01700076,0.1458414,0.1501768
0.001969938,-0.02047863,0.9936736,-0.1062158,-0.09324463,0.08909285
-0.003824955,-0.02340945,0.9883075,0.2016928,-0.03347215,0.1500871
0.002450792,-0.02048127,0.9931867,-0.106239,0.02624403,0.2110432
-0.000460831,-0.01615816,0.9907821,0.01689624,-0.3323028,0.08891071
0.001969472,-0.02193438,0.992205,0.01691367,0.08607735,-0.09434699
-0.000934399,-0.01517002,0.9946813,-0.04474384,0.02631388,0.08866836
-0.001400384,-0.02531866,0.9912137,-0.1062993,0.2056117,-0.03347421
-0.002377281,-0.02486113,0.9873243,0.07847228,0.0263311,-0.0334705
0.000544732,-0.02285798,0.9990131,-0.04486013,0.08621609,0.02767772
0.000525052,-0.01902096,0.9956301,-0.1679603,-0.2723873,0.08871079
-0.001888053,-0.02048151,0.9936765,0.01683075,0.02651311,0.02760819
3.40E-05,-0.02049506,0.9912419,0.1399467,0.02657363,0.02759267
0.001012259,-0.02094961,0.995618,-0.1680622,0.02659655,-0.03341401
-0.004793327,-0.02244866,0.9878275,0.01669018,-0.03316728,0.08868697
-0.001412934,-0.0209814,0.9907535,0.07836351,0.1460656,-0.03346429
0.003412815,-0.01515179,0.9971111,0.01660948,-0.09302071,0.08856012
-0.001893633,-0.02049351,0.99173,-0.1065098,-0.03321099,0.1495359
-0.003833321,-0.01906318,0.989307,0.1398208,-0.2125294,-0.03366381
-0.005269218,-0.02001077,0.9922222,-0.1065131,0.1461388,0.08830331
0.002936448,-0.02289817,0.9921983,0.01662248,0.08631866,-0.03396247
-0.000437588,-0.02192719,0.9936666,0.1397581,0.0264798,0.08804337
0.003406306,-0.01371103,0.9961466,0.01660009,0.02650284,0.1491539
0.002459006,-0.02094853,0.9956169,0.01671461,0.02652587,0.210092
0.002419175,-0.0190945,0.9834628,-0.1679831,-0.2125605,0.08796072
0.004852742,-0.01468045,0.9951664,0.01673052,0.1459765,-0.03415127
0.001011175,-0.0199821,0.9961104,-0.2295455,0.02646359,0.1489035
-0.000945714,-0.01567926,0.9902987,-0.1678723,-0.1526858,0.02671492
-0.000930685,-0.02098103,0.9907532,-0.04469834,0.02654709,0.02668139
0.000532644,-0.02142922,0.996102,-0.04470021,0.08635675,0.1487836
0.002454665,-0.02144277,0.9936674,0.01687616,0.02657418,0.08773972
-0.00333635,-0.02097084,0.9927015,-0.0447426,0.02637191,-0.03433368
-0.004315103,-0.01760779,0.9907762,-0.1677075,-0.09330972,0.02671979
-0.003349677,-0.01905983,0.9897934,0.01704452,0.1456729,0.0879074
0.00339003,-0.01665553,0.9878563,0.07865939,-0.1533686,-0.09527239
-0.002357908,-0.02530439,0.9936476,0.07873464,-0.09372701,-0.03425739
0.00149652,-0.0233695,0.994143,-0.04448207,-0.2131827,0.08782551
0.000501802,-0.02198045,0.9849065,0.07865293,0.08568084,-0.03428633
0.000518229,-0.02291496,0.989767,-0.04452498,-0.0338313,0.08775826
-0.001899523,-0.021476,0.9888043,0.01708985,0.02612928,0.02658015
0.002442733,-0.01952876,0.9912459,-0.1675643,-0.2128921,0.08756544
-0.002365655,-0.02338138,0.9926862,-0.04427466,-0.03363983,-0.2176346
0.000995365,-0.02147085,0.9892887,0.01730116,0.3248975,0.1485667
-0.00044363,-0.01903067,0.9941708,0.01737613,0.2052538,0.08752306
-0.000922471,-0.02144829,0.9931834,-0.1057442,0.1454344,-0.1566474
0.002433129,-0.01470025,0.9922485,0.1405662,0.08561514,-0.09553616
-0.001411073,-0.01952264,0.9927088,-0.04422903,0.02581471,0.1486252
0.000490029,-0.01521693,0.9868941,-0.1674267,0.08568159,0.0265137
0.000495142,-0.01666068,0.9873719,0.01730558,0.0856678,0.08745241
-0.001401157,-0.02338066,0.9926854,0.2019605,0.02594237,-0.0346973
-0.003327981,-0.02095284,0.9956213,0.07884046,0.02590977,0.0872328
0.001969009,-0.01902588,0.9946557,0.07887679,-0.09362114,0.02620872
-0.00139883,-0.02046615,0.9961093,-0.04432074,0.0857065,0.02623327
0.002959228,-0.02575869,0.9975337,0.01727451,-0.09361118,0.02614282
0.001003428,-0.01805909,0.9951489,0.1404866,-0.03376317,0.2091602
-0.004770702,-0.02579444,0.9926733,-0.1057707,0.08568382,0.08685762
0.003403046,-0.01953704,0.9897853,0.07896154,-0.1532329,0.08682518
-0.002380684,-0.01807961,0.9922317,0.01741947,0.0859188,0.02580163
0.002928856,-0.02048991,0.9917263,0.0789565,0.1456539,0.2088578
0.004371573,-0.02001257,0.990755,0.07891536,-0.09343201,0.08665141
-0.004305965,-0.02389206,0.988305,-0.2289976,0.08574526,0.02555138
0.000523347,-0.01999446,0.9941643,-0.1056695,0.08582519,-0.09653976
0.001974429,-0.02386339,0.9921932,-0.2903876,-0.03374345,-0.03550399
0.001965291,-0.01757912,0.9946645,-0.1670984,0.1454714,0.08656129
-0.002828997,-0.02528076,0.9975411,0.07907633,-0.09367053,0.1475204
-0.001425328,-0.01615888,0.9907828,-0.04408278,0.08558208,0.02537192
-0.00141727,-0.01711138,0.9927235,-0.0439307,0.1453551,0.1473032
-0.002385491,-0.02002961,0.9888135,0.07926165,0.0259181,0.02519336
-0.00478697,-0.02001041,0.9922218,0.01775789,-0.09351901,0.1472016
0.001000172,-0.01952085,0.992707,-0.1054402,0.1454451,-0.1580733
-0.000446727,-0.01564292,0.9961379,-0.04392293,0.08568215,-0.1579898
-0.001896116,-0.02389326,0.9878165,-0.1671154,-0.03393449,-0.1579751
-0.004780773,-0.02242167,0.9922072,-0.04390372,0.2049547,-0.03590935
0.002459623,-0.02337178,0.9936556,-0.1054848,0.2049037,0.02508862
-0.00285379,-0.01999998,0.9936802,0.01763011,0.02549257,0.02503795
-0.003826657,-0.02001869,0.9907612,0.01766598,-0.1537495,-0.03596552
0.001484588,-0.02145549,0.9917216,-0.1670716,-0.1536503,0.08606198
0.0005297,-0.02192047,0.9946392,-0.3516158,-0.03401515,0.02502022
-0.004312624,-0.0185723,0.9907704,-0.1669036,-0.03400994,-0.09701273
0.001972572,-0.02095788,0.9941573,0.0795417,-0.03394847,-0.03595721
-0.001889603,-0.02096976,0.9927004,0.01797958,0.08555505,-0.03610371
-0.000933475,-0.02098703,0.9897798,0.0180537,0.08554139,0.2689167
-0.000947575,-0.01713802,0.9883434,0.0180117,0.145352,0.08568204
-0.000444403,-0.01709267,0.9956425,0.2028012,0.08562665,0.2077676
-0.000440218,-0.01708367,0.9971024,0.1412002,0.2648042,-0.03645807
0.001967148,-0.02048463,0.9927004,-0.04347976,0.08537415,0.02459808
0.003407076,-0.02001329,0.9907557,-0.04348319,0.08528566,-0.09747266
-0.001414018,-0.02001389,0.9912459,0.07974724,0.2047332,-0.09742688
0.000530321,-0.01997946,0.9965976,0.07964709,0.08522158,0.02467785
-0.000921228,-0.01756628,0.9970998,0.01794948,0.02551546,-0.0363635
0.002454665,-0.02144277,0.9936674,0.01798497,-0.1536891,-0.03637533
-0.00237139,-0.02387862,0.9902501,0.01796239,0.02565764,-0.03638716
3.82E-05,-0.02048607,0.9927019,0.01793985,0.145105,-0.0974668
2.61E-05,-0.01905731,0.9897908,0.01793666,0.08537999,0.2688327
0.001030389,-0.02527488,0.9980248,-0.0435481,0.1450782,-0.2195494
-0.003817204,-0.0209682,0.9931885,0.01806551,0.1449898,-0.09738711
-0.000929286,-0.01661378,0.9951591,0.01800415,0.08518985,-0.03648448
0.000503667,-0.01615744,0.9907814,0.07959845,0.1447945,0.0245525
-0.000921698,-0.0233863,0.9917117,0.07949848,-0.154002,0.02450247
-0.000928979,-0.02000753,0.9922189,-0.04366116,0.08511315,0.02443336
0.002950242,-0.02335343,0.9965752,-0.04364499,-0.03449214,0.02442183
0.000990874,-0.01808609,0.9907693,-0.1668821,0.2045291,-0.03663837
0.000992424,-0.01759784,0.9917454,0.01798495,0.02521233,0.1463812
-0.002371853,-0.02097012,0.9927008,-0.166728,-0.09434734,-0.1587509
0.001480563,-0.01661498,0.9946707,0.01802274,0.2044232,0.08539402
-0.006713326,-0.01612684,0.9966265,0.01800011,-0.03466136,0.02431473
3.30E-05,-0.01904231,0.992224,-0.2282968,0.08488053,0.08531367
0.000993819,-0.01759484,0.992232,0.07968777,-0.03470568,0.08530234
-0.001883558,-0.01950201,0.9961156,-0.04345277,0.0250308,0.1462055
3.26E-05,-0.0161338,0.9946747,0.2027987,0.0249618,0.08514571
0.00101412,-0.01949085,0.9975733,0.1411011,0.08467962,0.0851921
0.0019594,-0.01856162,0.9917388,-0.0436561,0.02484281,-0.03687809
0.001950102,-0.01712686,0.989801,-0.2283747,-0.09464926,-0.03694679
0.004385834,-0.01901208,0.9966005,-0.1666256,0.08466088,0.02410996
3.46E-05,-0.01855406,0.9932002,0.07966454,0.08461085,0.02407968
-0.001889914,-0.02194026,0.9917212,-0.04349531,0.2041343,-0.03694174
0.001976295,-0.01804038,0.998068,0.07963845,0.02485552,-0.03687617
-0.004787739,-0.01370815,0.9976128,-0.04346339,-0.1544796,-0.03684903
3.34E-05,-0.01807181,0.9932031,-0.1666426,0.02481189,-0.1588617
-0.002857509,-0.01855322,0.9936889,-0.1049904,0.1442416,-0.1588539
4.53E-05,-0.01998582,0.9956246,0.07979882,0.02474966,-0.0367295
-0.0019113,-0.01907674,0.9868726,-0.04336123,-0.09464845,0.024327
0.001488618,-0.02193175,0.992692,-0.04344217,-0.1544101,-0.03680971
-0.000444558,-0.01757792,0.995153,-0.04342626,-0.09472971,0.02417021
-0.003342547,-0.01855958,0.9927161,-0.04344909,-0.1545851,0.02410153
-0.00480107,-0.0161614,0.9907854,0.2028217,-0.1545973,0.02412874
-0.001895956,-0.01904375,0.9922255,-0.04349457,0.08444349,0.02407927
0.001485672,-0.02242299,0.9912291,-0.04343995,-0.0949852,-0.03701884
3.49E-05,-0.01758356,0.9941792,0.01821219,0.2037674,0.02403801
0.003900172,-0.02095944,0.9936692,-0.1049478,0.08418202,0.02395031
-0.004787903,-0.02292192,0.9892844,-0.1047773,-0.1548642,-0.03705179
-0.001894872,-0.02001125,0.991733,0.01841409,0.1440012,0.02389009
0.001004512,-0.0190266,0.9946564,0.01833293,-0.03520203,0.02380257
-0.000935798,-0.01953728,0.9902753,-0.1048659,0.2635694,-0.1592392
0.00534289,-0.02048211,0.9926978,-0.1048696,0.08438485,-0.09818218
-0.00141727,-0.01711138,0.9927235,0.07990591,-0.09486714,-0.03713683
0.000517305,-0.01709795,0.9946685,0.01822731,0.02461902,0.02384352
0.000537607,-0.01899396,1.00001,-0.04331581,0.08439361,-0.03725427
0.001960791,-0.02292288,0.988306,0.01829749,-0.03515446,0.02380285
0.001003272,-0.01854434,0.9946594,0.1415663,0.1440622,0.02381128
-0.001871318,-0.02480978,0.9955968,-0.04309478,0.1440689,0.08484921
0.003886228,-0.01662517,0.9927223,-0.04302129,0.1440568,0.0847618
0.001973656,-0.02192539,0.9936648,0.1417094,0.2037752,0.145704
-0.001393254,-0.02481842,0.9941365,-0.04306792,0.08409591,0.2065314
-0.000456028,-0.01857241,0.9902807,0.080162,0.08404659,-0.09862644
0.001976757,-0.02094888,0.9956173,-0.04307581,-0.1549432,0.145558
0.000516532,-0.01515995,0.9961401,0.01845984,0.02440519,-0.09855124
0.001974744,-0.01852863,0.9970918,-0.1662401,0.2634088,0.02347826
-0.001880616,-0.02337502,0.993659,0.08024304,0.08403684,-0.1595439
0.004833987,-0.01666044,0.986882,0.01864137,-0.03551078,-0.03749535
-0.002873008,-0.01907146,0.9878465,-0.1044805,-0.09519659,0.02352378
-0.0038358,-0.01809868,0.9893129,-0.04294506,0.08403917,0.02353256
-0.00043387,-0.02337394,0.9936578,-0.166067,-0.154913,-0.1595472
-0.002855958,-0.01806497,0.9946652,-0.1043768,0.02439774,-0.09837476
-0.003331233,-0.01805033,0.9970987,-0.04262878,0.143903,0.02367366
0.000509709,-0.01905395,0.9902771,0.01900298,-0.09506807,-0.09839595
4.25E-05,-0.01999182,0.9946513,-0.1040807,0.08424263,0.2067602
0.001007608,-0.02241436,0.9926894,-0.04241037,-0.1547474,-0.1594466
-0.001407044,-0.0199989,0.993679,-0.0424151,0.08433115,0.02372718
-0.000911779,-0.02288005,0.9956077,-0.04236186,-0.03523563,0.0236207
-0.003361921,-0.01811631,0.9863929,-0.04232802,0.0843633,0.1456501
-0.00336471,-0.01812231,0.9854196,0.019168,-0.03512843,0.02354226
-0.003336199,-0.02484985,0.9892716,0.1423391,-0.0948335,0.1455142
0.003884677,-0.01711342,0.9917461,0.01919721,-0.09488329,-0.03771877
-0.002838291,-0.01948173,0.9995227,-0.04238581,0.08446468,0.02335812
-0.00379923,-0.02577872,0.9951057,-0.227106,0.203932,0.02338629
5.01E-05,-0.02240008,0.9951233,0.08085774,-0.09482614,-0.09866378
0.002931956,-0.01951341,0.9936787,0.01916462,0.02463019,0.02343071
0.000521174,-0.02242371,0.9912298,0.1423744,-0.03513116,0.02343961
0.00390637,-0.0233707,0.9936545,0.1423696,0.0844864,-0.09862971
0.005815841,-0.01904699,0.9907597,0.08078659,-0.03494921,0.02357241
0.003425671,-0.02288281,0.9946312,-0.1039529,-0.1545163,-0.09845872
-0.000445336,-0.02000418,0.9927052,0.01933415,0.0844869,0.08475348
0.002909025,-0.01277388,0.9917732,0.01930986,0.2039167,-0.09840321
0.00342397,-0.01949205,0.9970848,0.1423647,0.1439677,0.02368358
-0.002365655,-0.02338138,0.9926862,0.08070436,0.2036111,-0.0374332
0.002941721,-0.01949241,0.9970852,0.01914079,-0.1549333,0.023605
3.40E-05,-0.01613081,0.9951614,-0.04244213,0.2035875,-0.098522
3.06E-05,-0.01807781,0.9922298,0.08067097,0.08405854,-0.03742624
0.003400567,-0.01857254,0.9897912,0.2038421,0.2632756,0.08464146
0.001495747,-0.0214315,0.9956147,0.08060368,-0.09532502,-0.03756222
-0.000442239,-0.02339193,0.9907382,-0.042538,0.2034656,-0.09852539
-0.002372626,-0.01903211,0.9941723,-0.1040435,-0.09534824,-0.03754462
0.003445511,-0.02187032,1.002423,-0.1039321,-0.1551841,0.08448485
-0.003819994,-0.0209742,0.9922152,0.01929691,-0.1549329,-0.09867147
-0.00140317,-0.0209604,0.9941599,0.01927264,-0.0951017,0.02343482
2.70E-05,-0.02051006,0.9888088,0.0191904,-0.03543948,-0.03771996
-0.000455411,-0.02099567,0.9883196,0.2654406,0.08412216,-0.09877876
-0.00429697,-0.0175688,0.9971024,0.01894891,0.02439869,-0.03772103
0.001015667,-0.02336686,0.9946301,0.01896379,0.143904,-0.03775032
0.001017528,-0.02190811,0.9965855,0.01890131,-0.09508592,-0.09875157
0.005343663,-0.02242011,0.9912261,0.2037284,0.08420601,-0.03769384
-0.000929601,-0.02194854,0.9902607,0.01898918,0.02442613,-0.03766565
0.004387228,-0.01900908,0.997087,0.01902336,-0.0354288,0.145451
0.001017834,-0.02530187,0.993645,-0.2272942,0.02430859,-0.09877303
0.000523036,-0.02096496,0.9931852,0.01905291,-0.0353585,-0.09880233
0.002436536,-0.0171175,0.9912605,-0.04251057,-0.03523907,-0.03776372
-0.00478976,-0.02001641,0.9912485,-0.165575,0.02453558,0.08432356
-0.002372008,-0.02145537,0.9922112,-0.1655411,-0.09491853,0.1453238
5.12E-05,-0.02336758,0.9946308,-0.04222867,0.1440926,-0.2819046
0.002927616,-0.02000766,0.9917293,-0.2269104,0.1439866,0.1452919
0.003425671,-0.02288281,0.9946312,0.01955223,0.08405659,0.02316537
-0.001904636,-0.02003225,0.9883266,-0.04212794,-0.03558491,0.02315543
0.001477769,-0.02098523,0.989778,-0.042017,-0.03567157,0.145147
-0.005256047,-0.02240704,0.9946407,-0.1651787,0.08374023,0.0840694
0.00295117,-0.02480618,0.9955931,-0.04196948,-0.095575,0.02297264
0.001969782,-0.02096388,0.9931841,0.01962279,0.262815,0.0839733
0.001974433,-0.01949913,0.9961126,-0.04205746,0.3822834,-0.03813371
0.000523347,-0.01999446,0.9941643,-0.1037183,-0.03604691,-0.1602215
-0.003818133,-0.01951544,0.9941705,-0.1036847,0.02382259,0.1450123
-0.003328909,-0.01950009,0.9966034,0.019486,-0.03588143,0.08393484
-0.00527139,-0.02244003,0.9892877,0.01953887,-0.03593013,-0.03822961
4.51E-05,-0.02047107,0.995135,0.01959169,-0.09576555,-0.03827742
0.003417613,-0.0219303,0.9926905,0.01958641,0.08356477,-0.03824852
-0.002381617,-0.02099111,0.9892942,-0.1037107,-0.03600102,0.02279071
0.005814446,-0.01904999,0.9902731,0.1426745,0.1433105,0.08384909
-0.002371701,-0.02484913,0.9892708,-0.0420847,0.0836065,0.02277174
0.001003423,-0.02242335,0.9912294,-0.1037455,0.0835578,0.08381099
5.40E-05,-0.02336158,0.9956041,0.01934795,0.1432959,0.08372489
-0.001388603,-0.02335367,0.997065,-0.1653724,0.2029213,-0.03834346
0.001959245,-0.01904687,0.9912491,-0.04222096,-0.03619891,-0.03833362
-0.0009093,-0.02384456,0.9956019,-0.1037655,0.1430378,0.02260989
-0.002863088,-0.01856522,0.9917424,0.01944397,-0.03633313,0.02260065
0.002450329,-0.01757276,0.9956374,-0.04212001,-0.09607418,-0.09941007
0.001491407,-0.02192575,0.9936652,-0.1652816,-0.09599103,0.08365002
5.01E-05,-0.02240008,0.9951233,0.01954466,-0.09600181,0.0835641
0.000535901,-0.01996747,0.9985441,0.01957813,0.1430217,0.08349747
0.001008847,-0.02289661,0.9926865,0.01955352,-0.09613594,-0.09967679
0.001004356,-0.01951185,0.9941669,0.01958698,0.02338937,0.08342193
-0.000460524,-0.01955191,0.9878417,0.01954302,-0.1558688,0.02234513
-0.002857819,-0.01952372,0.9927099,-0.04205364,-0.2752766,-0.0997733
-0.003327674,-0.0243466,0.992681,-0.1036371,-0.2752123,0.02235357
0.002946834,-0.02093617,0.9975631,0.08126653,0.02359779,0.08337415
0.001956455,-0.01905287,0.990276,-0.1650518,-0.03612471,-0.1607528
0.001982954,-0.02336014,0.9956026,0.1428727,0.02372614,0.08339471
0.001470484,-0.02197073,0.9863657,0.01971081,0.02358377,0.02226043
0.001960484,-0.01952912,0.9912462,0.08120625,-0.03613875,0.3883712
0.001974123,-0.02046963,0.9951335,-0.04207157,0.02358074,0.08304248
0.000499171,-0.01713694,0.9883423,0.08107977,-0.1557152,0.082919
4.65E-05,-0.02046807,0.9956217,0.2042504,0.0236529,0.08289151
0.004864048,-0.02289973,0.9917102,0.01941385,0.02371701,0.02183455
-0.000444563,-0.02194218,0.9912334,0.01940885,-0.1555603,-0.1612431
0.00437917,-0.01805658,0.9951463,0.01944248,-0.03605423,0.2049832
0.001008541,-0.01950285,0.9956268,0.01953412,-0.03599016,-0.03925815
0.001477618,-0.01710623,0.9932079,0.0810298,0.08362849,-0.1002192
-0.001401619,-0.02047215,0.9951361,-0.04228647,0.08350468,-0.03912133
-0.001870385,-0.02189827,0.9985342,-0.04231071,-0.09577274,0.021919
0.000522885,-0.01708595,0.9966151,0.08084092,0.08342621,-0.03913805
0.001955834,-0.02099387,0.9883178,-0.103918,-0.03617695,0.08297013
0.002460396,-0.02530979,0.9921841,0.08088923,0.02365523,-0.2221474
0.000514671,-0.0166187,0.9941848,0.01922872,-0.03601108,-0.1611264
0.001958938,-0.01565311,0.9941895,0.1422644,0.2030309,0.02189614
0.000515754,-0.0175862,0.9936922,0.1421824,0.02367842,0.1439468
0.00148242,-0.01952048,0.9927066,-0.1042705,-0.1555988,0.08288984
0.000533573,-0.02288197,0.99512,-0.1041976,-0.03603638,0.02185205
-0.001422698,-0.02100239,0.987347,0.01897375,0.2029869,0.2049706
0.001004356,-0.01951185,0.9941669,0.08048948,-0.09592018,0.0829225
-0.001893788,-0.02097876,0.9912404,-0.1043657,0.02356733,0.02175049
0.001487223,-0.02193474,0.9922053,0.2651381,-0.2154403,0.08275265
0.004868233,-0.02289073,0.9931701,-0.04283472,-0.1557395,-0.1004973
-0.000441928,-0.02242143,0.9917172,0.01879732,0.2027261,0.02164962
0.00147932,-0.02049698,0.9907542,-0.2274619,0.1429099,-0.03942626
0.002943267,-0.02336842,0.9941419,-0.04260957,0.1429254,0.08263157
-0.00093208,-0.02098403,0.9902665,-0.1041343,-0.0363516,0.02151745
1.51E-05,-0.01423179,0.9903067,0.08049916,-0.03630593,0.02154793
0.001495441,-0.01803774,0.9985551,-0.1659149,-0.03627909,0.02146338
-0.001428118,-0.01616488,0.9898095,-0.04266609,0.02351565,0.08246593
-0.001891305,-0.017579,0.995154,0.08048598,-0.09599353,-0.03960083
0.002935519,-0.02144541,0.9931804,0.08046226,0.1430862,0.02147842
0.001969782,-0.02096388,0.9931841,-0.1658938,0.02346446,0.02143228
0.002454359,-0.01804901,0.9966078,-0.1042425,0.02343498,0.02140538
0.00339282,-0.01664953,0.9888296,0.142124,0.02336799,0.08233132
3.91E-05,-0.02193882,0.9917197,-0.1043481,-0.2754073,0.02117924
3.68E-05,-0.02048907,0.9922152,0.08036298,0.08322734,0.08212466
0.001467698,-0.01761247,0.9893118,-0.1659542,0.1429846,0.2040805
0.001983887,-0.02044864,0.99854,-0.1043416,-0.09604163,-0.04015967
0.003866237,-0.01375866,0.9883602,-0.1043072,0.2027499,0.0818923
0.002457611,-0.02095152,0.9951302,0.08051983,0.1427648,-0.04026959
0.00051591,-0.01710095,0.9941818,0.01893715,-0.03653069,0.02075302
0.002927616,-0.02000766,0.9917293,-0.04256817,0.2024932,-0.1012746
0.001497298,-0.02094325,0.996591,0.08058377,0.08300313,-0.1013007
0.000539153,-0.02286997,0.9970665,-0.0427126,-0.03652444,0.1428871
0.005840634,-0.02432777,0.9946206,-0.04265895,0.2024056,0.1427843
3.60E-05,-0.02291532,0.9897674,-0.04268271,-0.03654514,-0.04044519
0.001965753,-0.02048763,0.9922137,-0.2890194,0.08298036,0.0205393
-0.001889759,-0.02145501,0.9922108,0.08060031,-0.2158135,-0.04053519
0.004361502,-0.01663981,0.9902888,-0.04261874,-0.03653877,0.0816514
0.001494046,-0.01804074,0.9980684,0.018955,-0.03649288,-0.1623584
0.001501016,-0.02239,0.9965822,0.01893122,0.0830138,0.08182944
0.002930411,-0.0156374,0.9966221,-0.2273862,0.0232917,0.0818225
0.001973501,-0.02241063,0.9931753,-0.1041375,0.08301163,-0.1013305
0.001013188,-0.02240236,0.9946359,-0.0424865,-0.155958,-0.1013374
1.03E-05,-0.02054605,0.9829692,0.01908713,-0.09616303,-0.04029556
0.00101257,-0.0199791,0.9965972,0.01908251,0.2026474,-0.04024493
0.001480559,-0.02097924,0.9907513,-0.1039566,-0.09615809,0.08183285
-0.003338829,-0.02000633,0.9927074,-0.04238313,0.2026711,-0.04032897
0.004389396,-0.02094409,0.996102,-0.0423879,0.02343168,0.2647159
0.000533267,-0.01948821,0.9980603,0.08068644,0.1429007,0.1426502
0.003420714,-0.0209538,0.9946429,-0.04251337,0.2025267,-0.04048329
0.001492958,-0.0214375,0.9946414,0.1422167,0.02315608,0.203609
-0.003790239,-0.02381972,0.9999838,-0.0425419,0.0828011,0.1424004
0.001496987,-0.02191375,0.9956118,-0.1041247,0.08269712,0.02029666
0.001005289,-0.01660034,0.9971042,-0.04247373,-0.09654172,-0.04072002
-0.00334069,-0.02146509,0.9907521,0.01906117,0.02302166,0.08133266
0.00197629,-0.02240464,0.9941485,-0.1041192,-0.09644933,0.1422409
0.002461329,-0.02239828,0.9951214,-0.0425456,-0.2756696,0.02007981
0.004889774,-0.025269,0.9985086,-0.4119616,-0.09643229,-0.1019469
0.004861103,-0.02339097,0.9902474,-0.1654987,-0.09638622,0.08121216
0.001951186,-0.01809436,0.9893085,-0.1037899,0.02319568,-0.1629312
0.001988689,-0.0228629,0.9980387,-0.04217799,0.2025079,-0.0407059
0.002459778,-0.02288653,0.9941452,0.08095412,0.1426545,0.02037473
0.001966371,-0.02291088,0.9902526,0.01935155,-0.0365846,-0.0407187
0.005331419,-0.0214766,0.9878256,-0.04228969,-0.2158237,-0.1627649
0.001479475,-0.02001173,0.9912437,-0.04239131,0.02318141,0.0203364
0.003893971,-0.02291244,0.9897645,0.08076043,-0.09636483,0.02033003
-0.001407661,-0.01757564,0.9956403,-0.04242012,0.1426216,0.08133401
-0.000439912,-0.02047743,0.9941621,0.01913407,0.02318804,0.08128935
0.001001722,-0.01903259,0.9936831,0.08063025,0.08292687,-0.04083347
0.001977219,-0.02385739,0.9931665,-0.04253081,0.08287901,0.1422872
0.000522263,-0.01902696,0.9946568,0.08060173,0.08284996,-0.04080755
0.002462413,-0.02336578,0.994629,-0.0425013,0.08287726,-0.0408138
-0.00093921,-0.02148428,0.9873437,0.2038264,0.0231178,-0.1017921
-0.001858453,-0.02381228,1.000956,0.01891299,-0.03667917,-0.04069223
0.001492798,-0.026287,0.9902325,-0.1657875,-0.2158619,-0.04066027
0.002455442,-0.01901652,0.9961151,0.08063703,-0.155973,0.1423644
0.001497604,-0.024337,0.9936505,0.2653345,0.02330895,0.02019038
-0.001883402,-0.01901676,0.9966053,0.01886228,0.02333597,0.08123286
0.002462262,-0.01948677,0.9980589,0.08045553,-0.09613544,0.08120751
0.001481647,-0.01758248,0.9941782,-0.1658425,0.2026562,0.081163
-0.001888675,-0.02242251,0.9917183,0.08048541,-0.275423,0.02014654
3.71E-05,-0.01951856,0.9931943,0.080539,-0.1558226,0.02004457
-0.002848832,-0.02192898,0.9936684,0.01887894,0.02350805,0.0200194
0.000525515,-0.02192946,0.9931793,-0.1042626,-0.155769,0.1421108
-0.000453394,-0.01905167,0.9907645,-0.0426694,-0.03633769,-0.1020708
0.001501945,-0.02384276,0.9956,0.2036391,0.08316879,-0.0410089
-0.000450449,-0.01856042,0.9922273,-0.04271683,0.08321447,0.1421311
0.001479168,-0.01661798,0.994184,0.08047397,-0.03627584,-0.1020504
0.000523809,-0.02290297,0.9917135,-0.1043618,-0.03624903,0.1421191
-0.000445957,-0.02194518,0.9907469,-0.1042694,-0.03618473,-0.3461613
0.001944838,-0.0118041,0.9927531,-0.1041771,-0.03604542,0.02008638
-0.000437281,-0.02532094,0.9907265,-0.04256472,-0.09578684,0.02011866
0.001969938,-0.02047863,0.9936736,0.01908633,-0.03604867,0.02018921
0.00245296,-0.02241627,0.9922016,0.01900434,0.1432254,0.0812317
0.001960484,-0.01952912,0.9912462,-0.104118,0.02356595,-0.04085268
-0.000930685,-0.02098103,0.9907532,-0.04262167,-0.2154041,-0.04087804
0.000513893,-0.01904495,0.9917369,-0.165918,-0.03596106,0.08115565
0.002456989,-0.02289253,0.993172,-0.1042474,0.02379575,-0.1020348
4.36E-05,-0.02095932,0.9941588,0.1420804,-0.03592705,-0.04093466
0.001992096,-0.02528016,0.9970508,0.01890019,0.08357891,-0.04094073
-0.001885574,-0.02144601,0.9936706,-0.1658583,0.08353022,-0.04087014
0.005335608,-0.01710335,0.993205,0.1420479,0.08351913,-0.04083796
0.001964203,-0.02097588,0.9912375,-0.04274925,-0.03602783,0.3252946
-0.000430925,-0.02288269,0.9951207,-0.1042932,0.08345947,-0.04104193
0.002915373,-0.01906415,0.9883288,-0.1043556,-0.09578033,0.08099198
-0.002363794,-0.02192263,0.9946414,-0.04280097,0.02366948,0.08090945
0.004857078,-0.01855046,0.9931965,0.01867631,0.0834077,0.01977831
-0.003334644,-0.01999734,0.9941672,0.01865283,-0.03606407,0.080783
0.002929318,-0.02339841,0.9892756,0.08025219,-0.215334,0.0196582
0.001964047,-0.02146113,0.990748,0.1417876,-0.03602235,-0.04137684
0.002459317,-0.01997802,0.9965961,-0.04300911,0.08346497,-0.04138237
0.001010242,-0.02289361,0.9931731,-0.1045333,-0.09575609,-0.1634086
0.001022175,-0.02480762,0.9955946,0.08023603,-0.03594292,0.1417717
-0.000434492,-0.02531495,0.9916996,0.08011591,-0.1554149,-0.1024669
-0.002859521,-0.01613296,0.9951636,0.0184177,0.02387774,-0.04136619
-0.00428008,-0.02141182,0.9995121,-0.1662241,-0.03592019,0.01981114
0.001000789,-0.0219441,0.9907458,0.01854534,-0.03589384,-0.04143491
0.003423193,-0.02191831,0.994637,0.01865741,-0.2151151,0.141629
-0.003333094,-0.01950909,0.9951434,0.1418291,-0.2150138,0.01937292
0.004876914,-0.02190223,0.9970691,-0.04296769,-0.09532042,0.08039725
0.005810879,-0.02148224,0.986852,-0.04291371,-0.03552658,0.08035377
0.000530628,-0.02337322,0.9936571,0.08019997,-0.03546318,0.01931917
0.006770112,-0.01615876,0.9898032,-0.04297988,0.2035218,0.01933323
0.001010247,-0.01852935,0.9970925,-0.1661597,-0.09529211,0.01930895
-0.000447197,-0.02146293,0.9907499,0.0186483,-0.1549591,-0.1026593
0.003913037,-0.01996195,0.9990281,-0.1044543,0.203618,0.01947113
0.002431419,-0.020038,0.9868634,0.01871738,-0.03548438,-0.04160204
-0.000430618,-0.02627645,0.9921804,0.08023344,0.08400223,0.2024532
0.001012566,-0.02434336,0.9926777,0.0187865,0.08415943,-0.1638439
0.00147808,-0.02001473,0.9907572,-0.1042969,-0.09513754,-0.04171329
0.001005751,-0.01950885,0.9946535,0.01895193,-0.03543773,0.08034064
0.005345835,-0.01999086,0.9941606,-0.1041897,-0.03533693,0.1413842
4.57E-05,-0.02289433,0.9931738,-0.04271265,-0.03551771,-0.04172856
0.00148087,-0.02000874,0.9917303,-0.1042373,-0.03556693,0.01925754
0.001494815,-0.024343,0.9926773,-0.1657232,0.1437253,0.01925253
0.000527998,-0.01852971,0.9970928,0.01908434,-0.09541441,0.1411723
0.001988689,-0.0228629,0.9980387,-0.04257587,0.08387793,-0.04197849
0.001009936,-0.01949985,0.9961134,-0.04258041,0.3228631,0.01887377
0.001001877,-0.01854734,0.9941727,0.08055219,-0.03568099,0.01883091
-0.000454012,-0.01662841,0.9927257,0.2652631,0.02407547,0.07991346
0.00199024,-0.02237464,0.9990149,-0.04270398,-0.03575271,0.01888533
0.001001255,-0.02048835,0.9922144,0.08037075,0.02404139,0.01889996
-0.001893011,-0.0185525,0.9936882,-0.04288666,-0.09550595,-0.1031828
0.003438998,-0.02479383,0.9975392,-0.04281347,0.02401859,-0.2251697
-0.00139062,-0.02529767,0.9946202,-0.1659162,0.08360623,0.1410793
0.002463653,-0.02384803,0.994626,0.01908499,0.02388339,0.01899644
-0.002842169,-0.02288449,0.9951226,-0.1039601,-0.09558865,-0.04201859
0.001016755,-0.01997011,0.998057,0.01926897,0.1433592,0.01902536
0.003434814,-0.02480282,0.9960793,0.01936082,-0.09561116,0.01903979
0.002953649,-0.02577069,0.9955872,0.1424736,-0.09567869,-0.04197531
-0.001879377,-0.02385727,0.993656,-0.2269621,-0.1553828,-0.04203757
-0.000899229,-0.02721732,0.9960679,-0.04223232,-0.09551346,0.2630861
0.0043818,-0.02290009,0.9917105,0.08097722,-0.03579442,0.07991633
0.001500399,-0.01996675,0.9985433,0.01935529,-0.09549864,0.07983514
0.005325222,-0.01906534,0.9878402,0.019331,0.02402587,-0.04234332
-0.001865117,-0.02285678,0.9995015,-0.04225219,-0.1551017,-0.04230928
0.001931969,-0.01716585,0.9834749,-0.1652976,-0.03537102,-0.04233278
-0.003333094,-0.01950909,0.9951434,-0.04204951,-0.154825,0.07974108
-0.002843098,-0.02143174,0.9961045,0.08119847,0.02456077,-0.0423606
0.001033023,-0.02575413,0.9985086,0.01965363,0.02456744,0.01870293
0.000518851,-0.02097396,0.9917252,-0.1035276,0.08434203,0.01877527
-0.001412312,-0.01904039,0.9927118,0.0812792,0.02448691,0.1409257
0.001970711,-0.02241663,0.992202,-0.1034996,-0.09494841,0.1408829
0.004393266,-0.02626985,0.9926634,0.1427886,0.02461294,0.2629949
0.001948548,-0.02197937,0.9849054,-0.1036263,-0.03505454,0.1407398
-0.002361932,-0.02046387,0.9965969,0.08118056,-0.09477846,0.01850395
-0.001895183,-0.02098176,0.9907539,0.01951971,-0.2143079,-0.04258715
0.002457144,-0.02240728,0.9936615,-0.04200568,0.08451952,0.01847666
0.002443044,-0.01855826,0.9922251,-0.04197226,0.02483307,0.07950212
0.001016599,-0.02045536,0.9975674,-0.165134,0.1442627,-0.04263759
0.001500705,-0.02336051,0.995603,0.01965341,0.1442129,-0.04266069
-0.00091953,-0.0253213,0.9907268,0.01955136,0.1442569,0.0183074
0.002451565,-0.02241927,0.991715,0.01955228,0.08444691,-0.1037305
0.002944666,-0.01900116,0.9985481,-0.165091,0.2038205,-0.0426474
0.003405529,-0.01613728,0.9936988,0.01975445,-0.03524462,0.1403989
-0.000434021,-0.01949493,0.9970877,-0.1034269,0.0245113,-0.1037805
0.000501495,-0.01858669,0.9878469,-0.04179606,-0.0950554,0.2014207
0.005347386,-0.01950261,0.9951368,0.01985401,-0.03533694,-0.1647986
0.000499633,-0.02004544,0.9858915,-0.1648863,-0.09502298,0.07931563
0.001496987,-0.02191375,0.9956118,0.08145969,-0.1547091,0.2013325
0.001494815,-0.024343,0.9926773,-0.04183781,0.1440623,0.1401652
-0.000893805,-0.02769057,0.997525,-0.04190127,-0.154677,0.1399891
0.001031317,-0.02672763,0.9970427,0.08119179,0.08434513,0.07887959
0.000536821,-0.03014874,0.9897231,-0.04196999,0.08431426,0.01780852
-0.004790697,-0.02729218,0.9843918,0.01950623,0.02445917,0.3227612
0.00247527,-0.03109681,0.9921489,-0.2267732,0.02448475,0.01724659
-0.002342408,-0.02478615,0.9994901,-0.1035446,0.02447278,0.3222383
0.002481786,-0.02380905,1.000952,0.1427823,0.1439592,0.3217761
2.71E-05,-0.02002481,0.9892983,0.1428351,-0.1547049,0.4435459
-0.000447193,-0.01709867,0.9946693,0.01953785,0.1440477,0.1379946
0.001932595,-0.01086059,0.9893525,-0.04196824,-0.03523061,0.1987933
0.001927641,-0.00456732,0.9932836,-0.1035325,-0.3339135,0.07646541
0.004858482,-0.009818945,1.001522,-0.1650001,0.1442554,0.01530151
0.004376233,-0.009819306,1.001522,0.01984525,0.08434382,-0.1067959
0.001437637,-0.01137319,0.9844837,0.01976231,0.2038863,-0.1066235
0.001930578,-0.01280459,0.9869077,0.08129638,0.08431952,-0.2284911
0.002424141,-0.01229499,0.9912898,-0.1034824,-0.09486506,-0.2281657
0.004399005,-0.02140835,0.999019,-0.1033138,0.08444534,-0.3498423
0.004384753,-0.01368032,1.001012,-0.1032807,0.02468392,-0.4104132
-0.000446731,-0.02000717,0.9922185,-0.1648066,0.2038066,-0.5930246
0.004840801,-0.02149496,0.9849061,0.08159739,0.2037195,-0.5314227
-0.003803881,-0.02724347,0.9921771,-0.1031045,-0.09500078,-0.408907
0.001028527,-0.02673363,0.9960694,0.143338,0.02456064,-0.2254007
0.000545812,-0.02818974,0.9946011,0.02013689,-0.154624,-0.1028669
0.003935503,-0.02815723,0.9994649,0.2048913,-0.09484171,-0.2246948
0.004877216,-0.02966025,0.9902094,0.02015063,0.2637163,-0.1633448
-0.00138396,-0.03061744,0.9921548,0.02012531,0.02468852,-0.1020142
0.001517746,-0.03108253,0.9945828,0.1432759,-0.03497908,0.0200771
0.002984639,-0.03346272,0.9994334,0.0200748,0.02483282,0.08111973
0.005354969,-0.03063939,0.98777,0.08168585,-0.09465919,0.08105618
0.001018452,-0.02772513,0.9916838,0.1431421,0.1443439,0.2639854
0.004878766,-0.029172,0.9911855,0.0199219,-0.2142388,0.2636922
0.002479921,-0.02963206,0.9950775,0.1429567,-0.0347784,0.2632843
0.001020784,-0.02044636,0.9990274,-0.1034005,0.08476365,0.4459846
-0.001883713,-0.01998726,0.9956261,0.2044659,-0.1542833,0.6284746
0.002449397,-0.02048427,0.9927,-0.04183315,-0.09465927,0.3837014
1.23E-05,-0.009873528,0.9932529,0.08127918,0.08450077,0.5052976
0.002908407,-0.01035062,0.9937343,0.1428133,0.08452599,0.2606407
0.001476072,-0.01323022,0.996151,0.0810944,0.08443858,0.3213046
0.001454069,-0.007943442,0.9932635,-0.04202855,0.2039247,0.259929
0.002443359,-0.0132235,0.9971236,-0.04189841,-0.09496474,0.2596408
0.000967786,-0.01183181,0.9883742,0.01967442,-0.09495806,0.01531165
-0.004324397,-0.01180877,0.9927579,-0.04187052,-0.09491382,-0.1678153
-0.00046176,-0.0147054,0.991764,-0.1034155,0.08430282,-0.3507889
-0.000933004,-0.01516702,0.9951679,0.0813524,-0.0353202,-0.2284043
0.000521801,-0.01611845,0.9971075,0.01972997,0.02430445,-0.1062692
0.001972568,-0.02532214,0.990238,-0.04185371,0.02427391,-0.3501388
0.003891337,-0.02243319,0.9892807,-0.1649383,-0.09531122,-0.1057535
-0.002851004,-0.02435824,0.9907342,-0.1649631,-0.03547986,-0.04453361
-0.003799079,-0.02965773,0.9916759,0.01990145,-0.2147579,-0.1054305
-0.000438832,-0.02580919,0.9897501,0.08153207,-0.03524061,0.01674178
0.000534808,-0.02772848,0.9911976,-0.1033051,-0.03506497,0.1387798
0.002483635,-0.03544307,0.9911492,-0.1032333,0.08449622,0.1996158
-0.001857067,-0.0325378,0.9936033,0.08157302,-0.09457604,0.2603371
0.002946364,-0.02675619,0.9921749,0.02004704,-0.03472685,0.2600484
0.003909471,-0.0223942,0.995607,0.0200088,-0.09438702,0.1376869
0.005310043,-0.009884566,0.9908158,0.2046023,-0.09428724,0.1985626
0.001931049,-0.006984578,0.9922957,0.0197847,0.02527326,0.3202955
0.006792124,-0.01271702,1.00053,-0.1650136,-0.03452647,0.01486065
0.005335151,-0.009830582,0.9995751,0.01967704,-0.2138245,0.01472701
0.003392673,-0.008406261,0.9961789,0.08126924,0.2044444,0.07569969
0.00387306,-0.009864653,0.9942232,0.01956958,0.3836228,-0.2293896
0.004359027,-0.01131105,0.9942141,-0.1651704,0.2042124,-0.2902652
0.01160934,-0.01611917,0.9956392,-0.2266379,0.1442818,-0.3510067
0.001000487,-0.01418608,0.9976055,0.1428455,0.2037935,-0.2286219
0.000987622,-0.01518358,0.9922467,0.1429369,0.1439196,-0.3502979
0.000973979,-0.01860733,0.9844401,-0.1034976,0.1437952,-0.3498771
-0.003345493,-0.01905083,0.9912532,-0.103387,0.08379033,-0.2274552
-0.000924022,-0.02193654,0.9922072,-0.1032764,0.02380453,-0.4102581
-0.001865436,-0.0325558,0.9906836,-0.1031854,-0.03606837,-0.2268651
-0.002829619,-0.02722176,0.9955829,0.02000401,0.3223219,-0.2266376
-0.006221331,-0.03356253,0.9843548,-0.1646011,-0.09606452,-0.1654576
-0.003320242,-0.03160437,0.988744,-0.04129593,-0.1558244,-0.1653073
-0.003807603,-0.03016098,0.9882666,-0.2259788,-0.09584197,0.01789304
-0.002328308,-0.02863516,1.000927,0.0204633,-0.1554332,0.1399871
-0.00377676,-0.02960975,0.999462,-0.04104394,0.0240283,0.1397921
0.000536208,-0.02336122,0.9956037,0.02039247,-0.03565719,0.261618
0.000992735,-0.01662733,0.9927245,-0.04130806,-0.03553732,0.07827753
0.000540548,-0.02286698,0.9975532,0.08174562,-0.09509177,0.2001999
0.002975039,-0.02426994,1.004355,0.2047801,0.1440807,0.2610163
0.002462262,-0.01948677,0.9980589,0.08146311,-0.09494688,0.2607268
0.007755067,-0.0175688,0.9956334,0.1428617,0.02457693,0.2604569
0.003384139,-0.01763802,0.9849306,0.01968047,0.08440783,0.1991769
0.006780805,-0.01759052,0.9922276,0.08117598,0.02475904,0.1379738
0.002456687,-0.01513451,1.000032,0.01945709,-0.2738866,0.07677105
0.002940796,-0.0136754,1.001987,-0.1652827,0.1443639,0.01556844
0.007281654,-0.01609542,1.000022,-0.04199599,0.1442577,0.2595903
0.001962346,-0.01807037,0.9932017,0.1427009,0.144103,-0.1067355
0.000983903,-0.01373682,0.9922554,0.01942321,0.1438469,-0.1067931
0.001958783,-0.01613836,0.9936999,0.1426326,0.08406723,-0.04574446
0.000999709,-0.01661234,0.9951577,0.01943242,0.08394288,0.07635286
-0.003346577,-0.01808332,0.9917458,0.01946604,0.2629724,-0.1067741
-0.001416808,-0.02001989,0.9902727,0.01944157,0.1430311,-0.1065825
-0.004336182,-0.01813803,0.9829871,0.01955254,-0.1558757,-0.1064103
-0.002400057,-0.01763634,0.9859083,0.08116424,0.3222009,-0.1062575
-0.002842013,-0.02239924,0.9956121,-0.04190077,0.1428489,-0.2890784
-0.006226898,-0.02048175,0.9941665,-0.1033877,0.202475,-0.1057417
-0.001393561,-0.02142466,0.9970767,-0.04183432,-0.03666345,-0.2276104
-0.003838904,-0.02343944,0.9834412,0.08139406,0.02328187,0.1388908
-0.001904792,-0.0205175,0.987837,0.08142721,0.02329017,-0.1050758
5.50E-05,-0.02869335,0.991192,0.01976604,-0.1559303,-0.1658583
-0.000439605,-0.02387119,0.9912217,0.0813001,-0.2156338,-0.1047738
0.001024343,-0.02674263,0.9946096,-0.04184247,-0.09592086,-0.1657292
-0.003316986,-0.03014262,0.9911858,0.08128919,-0.2748978,-0.04359622
-0.000435731,-0.02483269,0.9917026,0.01964754,0.02394946,-0.04350311
0.00151465,-0.02769477,0.99655,0.14276,-0.03569847,0.07847638
0.001501634,-0.02481326,0.9946209,-0.04211538,0.08397609,0.07832031
0.002931024,-0.02242491,0.9907414,-0.04221718,-0.03560895,0.261253
0.004379014,-0.01854183,0.9946568,0.1425126,0.02422252,0.2000103
0.002945439,-0.02093917,0.9970764,-0.1039214,-0.3341529,0.3217031
0.003915206,-0.02189695,0.9980431,-0.1654078,0.02442415,0.2602887
0.001504428,-0.020443,0.9995136,-0.04214026,-0.1547978,0.01597792
0.00148521,-0.01951449,0.9936798,-0.04204862,0.02441909,0.3208754
0.002436998,-0.02002601,0.9888098,-0.04211184,-0.035342,0.2595387
0.001961106,-0.01758812,0.9932046,-0.1036952,0.08405063,0.1983365
0.004367548,-0.01517206,0.993704,0.2658658,0.02417713,0.07612418
-0.002373243,-0.01660886,0.9961335,0.01950902,0.2631435,0.1370006
0.002912432,-0.01519114,0.9907854,-0.04219044,0.382499,0.07585652
2.53E-05,-0.0171193,0.9912624,-0.1037931,0.2628016,0.01473173
-0.000924484,-0.01902803,0.9946579,-0.1653122,0.02368868,-0.04635
1.52E-05,-0.0181108,0.9868769,-0.04218013,0.202869,0.01483358
-0.005274021,-0.01759651,0.9927235,0.2041278,0.2028206,-0.1681586
-0.003832703,-0.02148644,0.9873459,-0.1039231,0.142948,-0.1679474
-0.002859365,-0.01564771,0.9956532,0.01924787,0.0831506,-0.04575408
-0.000922471,-0.02144829,0.9931834,-0.2270893,0.08313995,-0.1066111
-0.001407665,-0.0219399,0.9917209,0.08075839,-0.03623769,-0.04539022
0.00053109,-0.02628173,0.9912063,-0.04236417,0.02361328,-0.1063052
0.000525048,-0.02338522,0.9917106,0.01926728,-0.09580215,0.01586821
0.001489857,-0.022414,0.9926891,-0.165453,-0.03591386,-0.1671253
0.002927923,-0.02340141,0.988789,0.1423946,-0.1552358,-0.1059242
0.002476051,-0.02430629,0.9985163,0.2654303,-0.03557996,-0.1058103
0.004403652,-0.02430785,0.9980281,-0.1040825,0.02425142,0.0773728
0.004391097,-0.02433485,0.9936483,0.2038814,-0.03545315,-0.04464923
0.003445507,-0.02623458,0.9985038,-0.0425329,0.02426554,0.07742754
0.004400396,-0.02576961,0.9955862,-0.1040964,0.1437709,0.0773686
0.004403341,-0.02527836,0.9970489,0.08069172,0.1436654,0.1383393
0.004406282,-0.02915137,0.9945924,0.01901214,0.08373573,0.1992142
0.004866221,-0.02047047,0.9946447,-0.1041296,0.1433985,0.1379919
0.000524586,-0.02047671,0.9941614,-0.04257526,-0.03604794,0.2598968
-0.001414173,-0.02049914,0.9907565,-0.04263783,0.08351446,0.1375497
0.00387801,-0.02052218,0.9863726,-0.04266164,0.2028704,0.1983106
-0.001410455,-0.0219459,0.9907477,-0.1656872,-0.09599902,0.1370128
2.33E-05,-0.01906331,0.9888175,0.1422768,-0.2153956,0.07583038
0.001483815,-0.01951749,0.9931932,0.0806939,-0.03610266,0.1977367
-0.00286371,-0.02050622,0.9897842,0.01909166,0.1431714,0.01447643
-0.003350605,-0.01760707,0.9907755,-0.2887655,-0.09583624,0.01449657
-0.001381162,-0.02188292,1.000967,0.1423354,0.0834754,0.136384
0.002920802,-0.01517314,0.993705,0.1422921,0.02358383,0.07527903
-0.005756891,-0.01953788,0.9907656,0.08070915,-0.09605674,-0.0467404
-0.001422076,-0.01906139,0.9893053,-0.1040109,0.08329271,0.1362919
-0.002374172,-0.01515611,0.9971156,0.01906949,-0.1556511,-0.1688116
4.00E-05,-0.02339157,0.9907378,-0.04261008,-0.03623873,-0.0466747
0.001478547,-0.01855898,0.9922258,0.01894433,0.02364978,-0.2905808
0.00197195,-0.02289889,0.9921991,0.08053745,-0.09584077,-0.04630858
3.82E-05,-0.02048607,0.9927019,-0.1042984,-0.03587737,0.01485575
-0.00139217,-0.02578592,0.9936439,0.0189117,-0.03570096,-0.0461541
-0.000910384,-0.02287705,0.9960943,-0.1042299,-0.09540528,-0.1070298
0.002941561,-0.02434192,0.9926763,-0.04265606,0.1435799,-0.1068954
0.003898778,-0.02096244,0.9931826,0.01893708,0.2033552,-0.1677523
0.004397294,-0.02674611,0.9936336,-0.04258757,-0.03570933,-0.04557839
0.006803115,-0.02627105,0.9921749,-0.04251474,-0.3942159,-0.1064932
0.000541938,-0.02722823,0.9941204,0.08059848,-0.155043,0.1985965
4.65E-05,-0.02483233,0.9917022,-0.165719,-0.1550359,-0.2287446
3.77E-05,-0.02194182,0.9912331,0.08068606,0.1437171,-0.0456371
0.000541321,-0.02480498,0.9960815,-0.04255245,0.08391871,0.07640255
-0.001880461,-0.02288977,0.9941486,0.01909858,0.1435812,0.01518123
6.95E-05,-0.0272076,0.9975272,-0.1040626,-0.03584667,0.1981165
0.004394043,-0.0238436,0.9951112,0.01916661,-0.0360268,0.07582782
-0.001899057,-0.02002025,0.9902731,-0.1039559,-0.0360191,0.07569422
-0.002385024,-0.01857385,0.9902822,0.01919575,0.02355013,-0.04642155
0.002435452,-0.01615,0.991753,-0.1039462,-0.09595905,0.2585735
-0.000935639,-0.01468777,0.9946843,0.0808224,0.02350973,0.07533266
-0.000939983,-0.01954628,0.9888153,0.0806822,-0.03623144,0.136095
-0.001397434,-0.02046315,0.9965961,0.1422364,-0.03618593,0.0749521
-0.001432925,-0.01811488,0.9863914,-0.1041005,-0.1556576,0.0138093
0.000526292,-0.01950321,0.9956272,0.01901268,0.08342203,-0.04735256
0.00195785,-0.01904987,0.9907627,0.08050903,-0.09570514,0.01365978
-0.006229536,-0.02436676,0.9897634,-0.1042495,-0.03598585,-0.04736771
0.000518389,-0.01806545,0.994176,0.01896061,0.0238086,-0.04736572
-0.000949903,-0.02005252,0.9849193,-0.04250606,0.02377872,-0.1082974
0.001007919,-0.02144386,0.9936684,-0.04254939,0.1432472,0.07481214
-0.001412468,-0.01952564,0.9922221,0.08060253,-0.03591757,0.01386116
0.001014276,-0.0190056,0.9980629,-0.1657284,0.08353957,-0.1691446
0.002941721,-0.01949241,0.9970852,0.08059938,0.1433339,-0.1690855
-0.00140751,-0.02145465,0.9922104,-0.1656795,0.143304,-0.1080161
0.005339327,-0.0185501,0.9931961,-0.227127,-0.09562881,-0.0467551
0.001484899,-0.02048499,0.9927008,0.08085616,-0.2749439,-0.1076301
0.003912571,-0.0214177,0.9975594,0.01929243,-0.1552503,-0.3516321
0.001990857,-0.0247979,0.9970537,-0.0423294,-0.0356883,0.01460332
0.000545354,-0.02091697,1.000971,0.019244,0.1435103,-0.04638704
0.004390169,-0.02288209,0.9946304,0.2655328,0.08350576,0.01468157
-0.000457424,-0.01857542,0.9897941,-0.1039801,0.08340086,-0.1074342
0.001017372,-0.02239336,0.9960958,-0.22718,0.02362196,0.0146639
-0.001865895,-0.02528303,0.9970537,0.08082249,-0.03611936,0.1366278
-0.002367512,-0.02047587,0.9946502,-0.1653792,0.08336809,0.07546502
-0.00091953,-0.0253213,0.9907268,-0.1652876,-0.03625375,0.07531273
-0.005268135,-0.02097828,0.9917296,-0.04202015,0.08325262,0.197258
-0.001390002,-0.02772093,0.992659,0.01959153,0.02343636,-0.04695447
-0.003331392,-0.02289984,0.9926898,-0.1035509,-0.0362672,0.07512521
-0.002851933,-0.02290548,0.9917161,0.1427955,-0.09597085,0.01403967
-0.001407199,-0.02048415,0.9931896,-0.1036002,-0.03608237,0.2580251
0.004392182,-0.02530235,0.9931559,0.08118733,0.1432293,0.07480414
-0.001395267,-0.02239816,0.9956111,0.01960382,0.0835254,0.07482518
-0.000935021,-0.01711102,0.9927231,-0.04201836,-0.2151941,0.01374004
0.001974895,-0.02240764,0.9936618,0.01961266,-0.03590141,0.01381863
0.003894437,-0.02145669,0.9912331,-0.04200958,-0.03602521,0.01380129
0.000512188,-0.02001845,0.9902713,0.01954408,-0.03596121,0.01374564
0.001006995,-0.01562684,0.9985701,-0.04205869,-0.2151636,-0.04728195
0.002919096,-0.01614664,0.9922394,-0.04210257,-0.09562014,-0.1081754
0.006311266,-0.01707863,0.9970972,-0.04210771,-0.09550007,-0.2302519
0.00147932,-0.02049698,0.9907542,-0.04205482,-0.09541766,0.0749932
0.002920491,-0.01614364,0.992726,0.01947956,0.0839497,-0.1080362
0.005359474,-0.02093137,0.9980479,-0.1037594,0.02420765,-0.230017
0.004868855,-0.02094973,0.9951284,-0.2268823,0.02408342,0.0142366
0.003919701,-0.02091745,1.000482,0.08110666,0.203252,-0.10774
0.004844529,-0.0142132,0.9927363,0.08110149,-0.035925,0.07529221
0.002934129,-0.01708415,0.9966133,-0.1651586,0.2030231,0.01420646
-0.003824178,-0.02098319,0.9907554,0.01960949,0.02365188,-0.04682174
-0.001873642,-0.02336003,0.9960921,0.08129849,-0.09580113,-0.1077349
0.000533418,-0.02336722,0.9946305,-0.103403,0.02366745,0.07545058
0.000501961,-0.01713094,0.9893155,0.1429818,0.02350638,0.01440296
0.000526905,-0.02629072,0.9897465,0.01974247,0.1429752,-0.168742
0.006316526,-0.02676566,0.9902259,0.08129591,0.1428707,0.1974937
0.000513893,-0.01904495,0.9917369,0.1428494,-0.0362936,0.0143488
0.001965598,-0.02097288,0.9917241,0.08126578,0.1429808,0.1362939
-0.000446731,-0.02000717,0.9922185,0.08120238,0.142895,0.1971522
-0.001408283,-0.01951665,0.993682,0.142814,0.08315402,0.1359901
-0.000461915,-0.01519066,0.9912744,-0.04198404,-0.09612294,0.01383687
0.00197598,-0.02337514,0.9931694,0.0196856,-0.03623422,0.07484899
0.000507696,-0.01663369,0.9917516,-0.04191737,-0.2153612,0.01376381
0.001482109,-0.02049099,0.9917274,0.08129177,-0.1554917,0.01372735
0.00438893,-0.02239984,0.9946334,-0.2265275,-0.2151769,0.07473962
0.003410332,-0.01855154,0.9931976,0.01983794,-0.09553957,-0.1084811
0.002940166,-0.02434492,0.9921896,0.08139127,-0.2746859,0.07453284
0.003412655,-0.0200013,0.9927022,-0.1033877,-0.1549551,0.1355837
0.002445989,-0.01806701,0.9936878,0.01974399,0.02433696,-0.1696767
0.003417151,-0.0190218,0.9951412,-0.04185903,-0.2743645,0.01331836
0.000529237,-0.01901196,0.9970899,0.01984913,-0.2145897,0.01332076
0.000999398,-0.01758284,0.9941785,0.01980488,0.02437634,0.1353438
-0.001417736,-0.01856714,0.9912547,-0.1033185,0.1438253,0.01326816
0.001958934,-0.02001737,0.9902701,-0.04162977,0.0242589,0.0132515
0.003421642,-0.02240656,0.9936607,-0.16485,0.2036073,0.01329236
0.000516372,-0.02000945,0.9917311,0.1431903,0.02431045,0.01333315
-0.00237526,-0.01855286,0.9936886,-0.04168562,0.02412979,-0.0476556
0.001491718,-0.02095524,0.9946443,-0.1031535,0.02413698,-0.1086636
-0.001876898,-0.02482178,0.9936501,0.02004218,0.08386342,0.07445064
-0.004290004,-0.02628233,0.9916967,0.02009436,-0.0356089,-0.1697418
0.000993819,-0.01759484,0.992232,-0.04152846,0.02397864,0.1354465
-0.003352623,-0.01955107,0.9883306,-0.1030739,0.08358514,0.01340905
-0.001890376,-0.01903175,0.994172,-0.0414435,-0.09576744,-0.04765647
-0.001400535,-0.02143965,0.9946436,0.02012879,-0.03595425,0.01329878
-0.002387814,-0.01857985,0.9893089,0.0201035,0.1432259,0.01337792
0.002950863,-0.02141242,0.9985334,0.02002022,0.02367895,0.1354776
-0.004301007,-0.02582107,0.9882933,-0.04146714,-0.03615623,0.01338259
-0.001386124,-0.02431817,0.9970592,0.02016318,-0.2153959,0.01332744
-0.000464242,-0.01810516,0.9878505,0.2049306,0.08348923,0.01327237
0.004872111,-0.01948797,0.9975703,-0.1647769,-0.03594515,0.1353339
-0.003817515,-0.0219387,0.9922094,-0.164628,-0.09555537,-0.1698495
0.00051265,-0.02292696,0.9878205,0.143354,-0.2748143,0.01326071
-0.000936572,-0.01759927,0.9917468,0.02019152,-0.09555931,0.01307156
0.003923104,-0.02769897,0.9955748,0.08174441,0.08377076,0.01309348
0.003900328,-0.02047419,0.9941587,0.14322,-0.0356452,0.01292368
0.001008381,-0.02435236,0.9912177,-0.1031374,0.02411121,0.0128883
-0.000455407,-0.01663141,0.992239,0.08159143,0.02409968,0.01287211
-0.000452155,-0.01953392,0.9907616,0.08150829,-0.03573606,0.07380877
-0.001394805,-0.02530667,0.9931603,-0.04165385,0.0837509,-0.04826628
-0.000450298,-0.02243943,0.9887974,-0.1031798,-0.03579639,0.01268969
0.002449863,-0.01902851,0.9941686,-0.1030889,0.02407285,0.1347519
0.004366926,-0.01711307,0.9917457,-0.0415552,0.02391126,0.07361065
-0.001896418,-0.01613524,0.9946762,0.08167282,0.02388123,0.07365237
0.001965753,-0.02048763,0.9922137,0.08157022,0.02390753,-0.1094712
-0.000445025,-0.01903367,0.9936842,0.08150642,0.02383998,-0.170459
0.002933507,-0.01902516,0.994655,-0.1032533,-0.09578215,0.0126711
-0.002854723,-0.02291148,0.9907429,-0.1032783,0.2031592,-0.0483168
-0.000936416,-0.01711402,0.9922364,-0.103284,0.2030541,-0.04839028
0.002449241,-0.02096952,0.9922104,0.01996353,-0.03595368,-0.04834868
-0.001416501,-0.02341365,0.9873323,0.01993846,-0.1555195,0.01274157
0.000502579,-0.01955419,0.9873543,-0.1032755,-0.03602472,-0.1093486
-0.004784025,-0.01951917,0.9936846,-0.1032618,-0.09574743,-0.04827763
0.001978307,-0.02046063,0.9965935,0.08154459,-0.09558965,-0.04817868
0.002458384,-0.02288953,0.9936585,0.01994129,-0.09552588,0.1959616
4.17E-05,-0.02241807,0.9922035,0.1430534,-0.03576927,-0.1092597
-0.001407665,-0.0219399,0.9917209,-0.0416483,-0.09558614,0.0129366
-0.000450293,-0.01807517,0.9927169,-0.1648492,-0.2746386,0.1960089
-0.000441151,-0.01999518,0.994165,-0.1031799,0.08386371,-0.1091932
0.003432957,-0.02189731,0.9980435,0.143166,0.08385219,-0.1702581
0.001966837,-0.02145513,0.9917212,-0.04151652,0.02405398,-0.04815772
0.002462262,-0.01948677,0.9980589,0.08157607,-0.03576296,-0.04823139
-0.003352161,-0.02245958,0.9858798,0.01997273,0.322627,0.01264789
0.002454977,-0.02047227,0.9946465,-0.04145653,-0.03586053,0.01255534
0.001019234,-0.02093461,0.9980512,0.08165533,0.0837204,0.1956281
0.004387073,-0.01949433,0.9965975,0.02003249,0.0239036,0.07347671
0.002437154,-0.01954076,0.9892994,0.1432412,0.08358528,0.01237409
2.87E-05,-0.0151723,0.9941939,-0.1030777,0.1432482,0.01232021
-0.001896112,-0.019529,0.9917359,0.1433261,0.02358871,0.07337259
-0.001412157,-0.01855514,0.9932013,-0.04147262,0.0831769,-0.04874026
0.002458073,-0.02386003,0.9926795,0.02017707,-0.09600626,-0.1708722
-0.000912707,-0.0214273,0.9965899,-0.1645637,-0.03619276,0.01229676
-0.001416497,-0.01904939,0.9912518,-0.1030108,0.0236019,-0.1097202
-0.001877516,-0.02239852,0.9956114,-0.04134185,-0.1555439,0.134459
-0.002358063,-0.02578964,0.9931581,-0.1644464,0.1431159,0.07339473
-0.001888204,-0.0166025,0.9971064,-0.04125741,-0.03621756,0.1343895
0.002913512,-0.0205229,0.9863734,-0.1643428,0.08330754,0.0122384
0.005348314,-0.02095536,0.9941548,0.08202193,-0.2752547,-0.1097977
0.002430334,-0.0190705,0.9873558,0.08191891,0.1430351,-0.04866859
0.000999083,-0.0229176,0.98928,0.0202571,-0.2155083,-0.109637
0.00679072,-0.02144853,0.9922042,-0.1646191,0.08313303,0.1345038
0.001966526,-0.02242563,0.9907421,0.08180391,-0.1558556,0.01235248
0.003423814,-0.0199773,0.9965954,0.0201036,0.0234564,-0.1097795
-0.00190138,-0.0185705,0.9907686,-0.04145489,0.1429514,0.01230623
-0.004300999,-0.01709255,0.996132,-0.04149951,-0.03640058,0.1953218
0.002942027,-0.02288617,0.9941449,-0.04142803,-0.2156587,0.07313244
2.39E-05,-0.0171223,0.9907759,0.0200089,0.2027814,-0.1100863
-0.002877961,-0.0127782,0.9917776,0.1431209,0.02341045,0.01207269
2.51E-05,-0.01324029,0.9946923,0.0200554,-0.03638688,-0.04895283
0.000972904,-0.008911304,0.9927714,0.02012691,-0.09597778,-0.2318649
-0.000950357,-0.008415496,0.9952089,-0.1029389,-0.1557565,-0.3537285
-0.001461272,-0.002173575,0.9908677,-0.04128933,0.02361161,-0.4753241
-0.000988939,0.001684799,0.9908908,-0.1027577,-0.2153585,-0.6578156
0.00145159,-0.006978939,0.9932694,-0.1026479,-0.1554702,-0.8400012
-0.000472755,-0.005515628,0.9961994,-0.04103744,-0.2151929,-0.8999756
-0.001400531,-0.0170754,0.9985631,-0.1640263,0.0836544,-0.8987877
0.002475118,-0.0272178,0.9955788,-0.1022614,0.1433736,-1.019584
3.88E-05,-0.03163784,0.9829018,0.02081084,0.143231,-1.018418
-0.002356828,-0.03063615,0.9892357,-0.04065819,0.2030067,-1.139217
-0.000840504,-0.04406314,1.001319,-0.1022627,0.08342221,-0.8330219
-0.001772768,-0.04787389,1.009082,-0.04063344,0.2027407,-0.4049799
0.003502823,-0.05617618,0.9915093,0.02097652,0.1428119,-0.03846665
0.002997168,-0.05962129,0.9802966,-0.1021676,0.202363,0.1445743
0.002992054,-0.05817752,0.9798188,0.0210592,-0.03668153,0.3273663
-0.001803616,-0.05278938,0.993967,0.02105205,-0.1561151,0.6929788
0.003033137,-0.04742103,1.003728,0.08266188,0.02314091,0.8140332
0.000586563,-0.04022504,0.9979344,0.2671574,0.08276721,1.239911
-0.00088762,-0.04319461,0.985752,0.08216447,-0.03679759,1.543367
5.56E-05,-0.03984512,0.9813921,0.2051017,-0.0367701,1.66343
0.000540233,-0.02820174,0.9926546,0.1432465,-0.2756644,1.844371
-0.004271084,-0.01508857,1.00831,0.1430086,0.1425884,1.780987
0.00342181,-0.008828529,1.005909,-0.04192512,0.321563,1.656691
0.004793085,-0.000746136,0.9869787,0.3888851,0.3809271,1.593619
0.005234894,0.01226003,0.9846242,0.2039133,-0.03755172,1.286546
0.002858834,0.01330371,0.997771,0.2037152,0.1415553,1.040831
0.007263079,0.008595397,1.015744,0.5113371,0.2012087,0.9788213
0.001438275,0.008024852,1.002119,0.5106755,0.6190501,0.7335314
-0.000112484,-0.007717196,0.9519038,0.2022009,0.3796324,0.7936012
-0.00734156,-0.001893583,0.9587573,0.01721221,-0.2777102,0.5487163
-0.00768448,-0.006443541,1.003012,-0.2288323,-0.3967659,0.3039283
-0.01349766,-0.009898599,0.9908301,0.141002,-0.1574022,0.3646335
-0.01255021,-0.01090437,0.9840106,-0.2899134,-0.1572232,0.2421356
-0.01159687,-0.006563385,0.9840362,-0.5356107,-0.1568756,0.3028994
-0.01158323,-0.007503896,0.9879234,-0.04258285,-0.2162213,0.05853501
-0.005288898,-0.01617375,0.9888391,-0.04258737,-0.3353167,-0.06357837
-0.007163972,-0.03060676,0.9945924,0.2650479,-0.4544127,-0.002469021
0.000562689,-0.04512554,0.9852526,0.264773,-0.2746882,-0.06349543
0.004423928,-0.05238943,0.9798528,0.6953722,-0.6327069,-0.002501163
0.004471674,-0.04258844,1.005216,0.4482437,-0.5124326,0.180303
0.0069195,-0.0371739,1.022765,0.3246209,-0.2131744,0.5460235
0.006838924,-0.01892031,1.011198,0.7549901,-0.392248,0.4232404
0.005319496,-0.01083407,0.993243,0.9389119,0.02609485,0.7887133
-3.81E-05,0.01135455,0.9948416,0.5067815,0.2650025,0.5437771
-0.001952344,0.009445095,0.9982378,0.3829692,-0.03386984,0.3601014
-0.00194179,0.02498512,1.01585,0.628569,0.2048129,-0.06740412
0.005290073,0.01480325,1.006051,0.5046037,0.3836718,-0.189321
0.009650908,-0.003576066,0.9966902,1.119482,0.5623624,-0.5550877
0.01062949,-0.02924566,0.9785287,0.5026217,0.5019819,-0.9204141
0.008698642,-0.01761307,0.9883331,0.132579,-0.03620359,-0.3703184
0.01018166,-0.01316976,1.004904,-0.7907196,-0.03627069,-0.4919314
0.008266456,-0.01362646,1.009282,-1.09754,0.2025652,-0.7962694
0.003487505,-0.03002362,1.009673,-1.834926,0.3216778,-1.222303
-0.004710889,-0.0392435,1.001351,-1.524808,0.5601391,-1.220902
-0.007150333,-0.03154727,0.9984797,-2.446141,0.9178932,-1.280379
-0.01152018,-0.03258399,0.9872845,-2.627707,0.3793916,-1.278828
-0.008222074,-0.02256515,0.969338,-2.378054,0.3788588,-0.9111983
-0.001036378,-0.01150995,0.9625869,-2.436414,0.1993231,-0.9099388
-0.007324507,0.003477168,0.9694954,-2.680412,-0.2786893,-1.031083
-0.003445442,-0.000353976,0.973362,-2.615641,-0.5767286,-1.395869
0.002025885,-0.02423767,1.009709,-3.166424,-0.8148321,-1.454954
0.00301331,-0.03534074,1.007694,-3.720628,-0.6355845,-1.210836
0.005409984,-0.03730994,1.000868,-4.213254,-0.3965878,-1.088777
0.003910861,-0.02675546,0.9921742,-3.966941,-0.09784186,-0.6005406
0.005816921,-0.02437875,0.9863478,-3.597472,-0.2770894,-0.3564225
0.002957989,-0.02527644,0.9975367,-3.043268,-0.09784186,-0.295393
-0.002313288,-0.04266545,0.9935422,-3.412737,-0.5160862,0.009754575
-0.000350815,-0.04259203,1.00522,-3.597472,-0.3368386,0.07078408
-0.005660034,-0.03048271,1.014543,-4.397989,-0.3368386,0.1318136
-0.005687772,-0.02569319,1.00922,-4.705881,0.0814057,-0.05127494
-0.000462696,-0.02198117,0.9849072,-4.582724,0.2606533,-0.295393
0.004812904,-0.02155494,0.9751735,-4.336411,-0.157591,-0.173334
0.001438095,-0.01864596,0.9781135,-3.720628,-0.2173402,-0.173334
-0.001940744,-0.01526072,0.980083,-3.597472,-0.6355845,-0.3564225
-0.007616782,-0.0387874,0.9974628,-3.535894,-0.456337,-0.6615701
-0.01289362,-0.04309564,1.00328,-4.151676,-0.456337,-0.417452
-0.004745917,-0.03980374,0.9886953,-4.213254,-0.3368386,-0.417452
-0.004327658,-0.01763478,0.9863965,-4.274833,-0.3965878,-0.173334
0.004870405,-0.02046148,0.9961045,-5.013772,-0.456337,-0.4784815
0.0030085,-0.041655,1.000357,-6.737963,-0.6953337,-0.5395111
0.004499882,-0.04155795,1.015928,-8.523731,-0.2770894,-0.3564225
0.004436499,-0.0349054,0.9999102,-10.8637,-0.03809267,-0.173334
0.006809631,-0.01898329,1.000978,-14.06577,0.6191484,-0.6005406
0.02218513,0.01782717,1.181724,-23.85671,2.172627,-1.332895
-0.2420107,0.09579954,1.111354,-107.1721,5.936826,3.671525
-0.01838614,-0.2117027,0.9540859,-47.19487,2.590872,1.291374
-0.004692449,-0.04259827,1.004737,-47.13329,1.694634,3.488437
0.01189613,-0.03448098,0.911343,-45.59384,0.6788976,3.488437
-0.003518165,-0.03590925,0.9162123,-30.26085,-0.6355845,1.962699
0.01749468,-0.000452719,0.876509,-23.48724,-0.09784186,0.07078408
0.006589674,-0.04855122,0.8981231,-8.646888,0.2606533,-1.577013
-0.004579537,-0.04242218,0.8767578,6.255047,0.49965,-2.553485
-0.01689702,-0.07493073,0.9242582,19.06332,-0.2173402,-1.94319
-0.01370305,-0.1159853,0.9916461,21.89592,-1.472073,-0.417452
-0.007579939,-0.1632651,1.065807,20.04857,-1.651321,2.328876
-0.002721042,-0.1757911,1.067187,12.22814,-1.770819,4.525939
-0.006735243,-0.1586728,1.028365,9.395538,-1.531822,5.319323
-0.005004419,-0.09848285,1.013643,9.33396,-1.233076,3.549467
-0.000320001,-0.07259061,0.9889795,10.19606,-0.7550829,1.84064
0.004417563,-0.06355619,0.9676197,12.59761,-0.157591,-0.2343635
0.01025197,-0.07217843,0.9763219,15.12231,0.9178943,-0.9056881
0.01363236,-0.0663469,0.9831674,17.1544,1.276389,-0.417452
0.01848041,-0.08665486,0.9737946,21.03383,1.156891,0.009754575
0.009694424,-0.04179092,0.9774801,24.42063,0.9776434,-1.149806
-0.001352676,-0.054796,0.9813024,25.52904,0.4399008,-2.736573
0.004938402,-0.06492762,0.9797763,31.0095,-0.6953337,-2.980691
0.005395728,-0.03394618,0.9989421,31.37897,-1.113578,-3.16378
0.01804515,-0.05309493,1.020227,28.11532,-1.053829,-0.417452
-0.003330615,-0.02047359,0.9951376,23.00433,-2.129314,2.206817
-0.000898304,-0.03303433,0.9911665,18.44754,-3.384047,3.793585
-0.005733178,-0.01948689,0.9990384,15.61494,-3.981539,4.770057
-0.000432614,-0.006399155,1.009333,13.02865,-3.92179,3.915644
0.01312829,-0.03875394,1.000367,14.19864,-2.786555,3.244319
-0.02220884,-0.02306383,0.9683725,15.98441,-3.623044,4.586968
-0.01052546,-0.0383373,0.9926016,18.13965,-6.371506,4.220791
-0.00225966,-0.04061048,1.013993,19.37121,-8.044484,3.732555
0.004147632,-0.07958723,1.02689,19.1249,-6.730001,4.953146
0.01565437,-0.04577897,1.033899,18.5707,-7.506741,6.173736
0.01804547,-0.0433959,1.029045,18.50912,-5.057024,9.835506
0.01447078,0.01436382,1.01188,17.09282,0.0814057,10.81198
0.1997301,0.007039591,1.36595,24.72852,6.474569,3.12226
-0.1126449,0.1581632,1.042534,15.7381,39.33662,2.572994
-0.161815,-0.0382232,0.873011,16.35388,28.94026,7.943592
0.1868794,0.1464331,1.215468,17.46229,-5.594767,9.774477
0.001207391,0.05747486,0.9664103,5.885578,13.10673,-2.004219
-0.04823181,0.0738731,0.8945287,18.07807,11.01551,-6.764521
-0.02056805,0.05196495,0.9357368,20.72593,4.443097,-7.924082
-0.0695456,0.02134905,0.981817,18.32438,4.383348,-8.961583
-0.005329623,0.0220471,1.009022,13.58286,9.99977,0.4979907
-0.0188594,0.02973806,1.006646,10.31921,8.565789,-2.980691
-0.02267509,0.01818813,1.010959,7.425034,4.263849,-2.858632
-0.05451234,0.0210549,1.010514,5.146638,-5.35577,-4.994665
-0.01618454,0.008485401,1.079021,4.4077,-7.148246,-4.018193
-0.009938566,-0.007562192,1.056535,-0.5185596,-5.057024,-3.285839
-0.01870764,0.05528002,1.082227,-2.735376,-8.163982,-8.412318
-0.0138509,0.0534176,1.092431,-4.336411,-8.761475,-11.64688
0.000168097,0.04574199,1.097239,-5.198506,-8.582227,-14.21012
-0.02237794,0.05374103,1.145967,-7.045854,-5.833764,-11.40276
0.06935935,0.02301125,1.156415,-11.04844,1.455637,-8.10717
-0.00826148,0.09809439,1.063987,-9.077935,6.594067,-6.337315
0.01026512,0.06459635,1.103672,-7.907948,5.339334,-7.374816
0.02338796,0.05270273,1.128407,-7.53848,11.01551,-8.046141
0.01856762,0.02894283,1.107829,-5.691133,17.16967,-10.91453
0.001306141,0.004413013,1.120345,-7.907948,20.57538,-5.60496
-0.001074272,-0.008130332,1.119784,-9.693718,22.06911,-3.529957
-0.03104594,-0.02479513,1.079804,-11.91053,21.23262,-2.187308
-0.01468374,-0.03600965,1.057825,-17.02153,18.12566,7.882562
-0.04343086,0.006493649,0.9938722,-17.02153,15.07845,9.225211
-0.0507348,0.009246803,0.9719968,-12.40316,8.625539,4.464909
-0.04449563,0.0111265,0.9632444,-10.37108,3.487109,1.291374
-0.02907112,0.005303009,0.9554113,-12.52632,2.232376,2.389906
-0.005386529,-0.003290913,0.9665331,-14.74313,3.726106,3.732555
-0.03871146,-0.01506073,0.9387502,-7.045854,4.443097,2.817112
-0.009310849,0.002867513,0.9490554,-2.673798,4.2041,3.18329
-0.05708387,-0.000627845,0.9354457,-1.56539,3.965103,3.18329
0.004604493,0.0284283,0.94774,4.099808,5.518582,3.488437
-0.01893352,-0.005820216,0.94901,2.745087,6.175823,2.328876
-0.04296615,-0.02215379,0.962068,-0.3338249,0.9178943,5.502411
-0.03534824,0.01982887,0.9657232,-1.380655,-0.6953337,5.319323
-0.002834724,-0.01704948,1.002944,-2.119594,1.037393,2.450935
-0.01687865,0.008514425,1.005543,-1.503812,5.458833,1.474463
-0.02700977,-0.003624404,0.9933116,-3.966941,7.370807,0.4979907
-0.0086149,-0.02625258,0.997053,-4.397989,9.043783,2.267847
-0.02516817,0.006372361,0.9719598,-3.351159,12.50924,5.197263
-0.02564237,0.005419495,0.9739008,-0.5801378,14.30171,7.638444
-0.05842182,-0.01348777,0.9616458,1.390366,13.76397,8.248739
-0.04478496,-0.02628256,0.9965941,5.08506,12.32999,10.20168
-0.05299541,-0.003523868,1.012797,6.316625,11.67275,6.478883
-0.07468842,-0.01710009,1.003485,5.947156,9.402278,2.756083
-0.06392802,-0.06380462,1.013899,3.484026,3.487109,4.037703
-0.08532377,-0.01522399,0.9962056,-2.673798,-1.950067,8.736975
-0.06266612,-0.00989031,0.9981671,-1.319077,-7.506741,7.211237
-0.06121796,0.007570804,1.01433,4.161386,-10.01621,6.539913
-0.0501679,0.03852417,1.027648,4.099808,-9.179719,4.34285
-0.06551836,0.02317058,1.042165,3.668761,-7.865236,0.5590202
-0.05430904,-0.01439181,1.049228,3.422448,-8.582227,-2.248337
-0.07649077,-0.01343486,1.050711,2.190883,-9.657712,-2.370396
-0.05959935,-0.008545758,1.059487,1.636679,-10.3747,-2.675544
-0.05865842,-0.02120355,1.039944,-0.1490902,-10.2552,-2.492455
-0.05770272,0.01660175,1.07083,0.158801,-9.179719,-2.858632
-0.04850202,0.01766007,1.084941,-2.673798,-6.252008,-5.543931
-0.03203261,-0.02435859,1.072508,-4.582724,-0.9940796,-6.215255
-0.04354614,-0.04023954,1.079233,-11.60264,2.172627,-0.4784815
-0.060542,-0.01868276,1.057966,-13.88104,2.829868,4.098732
-0.06011183,-0.01152061,1.04633,-17.08311,0.1411549,5.380352
-0.06688982,-0.007218368,1.041009,-18.68414,-1.591572,6.051677
-0.06742598,0.007212838,1.035257,-18.25309,-3.503546,2.695053
-0.06297154,-0.0192088,1.051152,-15.48207,-5.714265,0.1318136
-0.0440112,-0.05620519,1.070864,-10.37108,-7.148246,0.8641677
-0.03342327,-0.05818327,1.061598,-7.292167,-8.044484,5.868588
-0.05664666,-0.01956941,1.070123,-12.34158,-10.67345,7.760503
-0.05134007,-0.02247096,1.068155,-13.26526,-13.18291,8.12668
-0.008649889,0.01246553,1.019672,-1.688546,-6.132509,-2.797603
-0.02811914,-0.03393476,1.083152,-7.415323,-19.33708,-0.1123045
-0.03293619,-0.02568309,1.092452,-8.462152,-16.23012,3.244319
-0.04408091,-0.01707682,1.081807,-11.60264,-15.69238,1.291374
-0.03118975,-0.003767994,1.048788,-10.74055,-16.11062,-0.8446586
-0.01519602,0.000779089,1.080433,-11.66422,-16.46912,-1.271865
-0.008347075,-0.02131248,1.094406,-16.71364,-14.0194,0.3149022
-0.005041522,-0.001094377,1.0882,-13.1421,-10.3747,-0.295393
-0.007642154,0.008194964,1.030838,-11.11002,-6.132509,-5.116724
-0.007764291,0.001143526,0.9821336,-7.476902,-6.07276,-5.66599
-0.01501941,-0.000362611,0.9733709,-1.503812,-7.865236,-9.144672
-0.008171232,-0.01615192,0.9927345,5.08506,-9.597963,-12.9285
0.003593941,-0.07198253,1.008931,10.6271,-8.821223,-17.99395
0.005994354,-0.05357717,1.021693,4.654013,-9.597963,-15.36968
0.01459394,-0.04065188,1.00522,-2.181172,-9.83696,-13.23365
0.01402256,-0.05781597,0.9588881,-3.351159,-11.56969,-9.999085
0.003821105,-0.04586019,0.9438834,-4.213254,-15.45338,-3.407898
0.03553053,-0.01699731,0.9284626,-3.597472,-17.60435,0.2538726
0.01907858,-0.02052327,0.9060695,-1.811703,-16.34962,-1.577013
0.02139884,-0.01732266,0.8773768,3.422448,-15.45338,-1.271865
0.02967023,-0.01085532,0.9085531,11.4892,-14.19865,-2.065249
0.04467018,0.006720838,0.9417381,10.01132,-9.119969,-1.271865
0.06021807,-0.005626249,0.9708481,3.853496,-1.830568,-2.675544
0.05689779,-0.0283006,0.9697398,-3.966941,7.191559,-1.821131
0.06026313,-0.04335286,0.9526144,-11.29475,12.44949,-1.577013
0.03354573,-0.02148298,0.9050793,-16.40575,13.10673,-0.05127494
0.0295763,-0.02996905,0.8588024,-15.85154,8.565789,-1.088777
0.02275988,-0.02380979,0.8418135,-8.708466,5.757578,-3.346868
0.02185626,-0.05568411,0.8343214,-2.920111,2.949367,-1.210836
0.01603007,-0.04752913,0.8280495,-3.65905,3.068865,-0.05127494
0.02616489,-0.04992984,0.8285137,-3.474315,6.056324,1.047256
0.008789361,-0.04754953,0.8256218,-0.1490902,7.609803,0.7421087
0.0146047,-0.05475799,0.8289798,0.158801,8.506041,-1.149806
0.000599496,-0.05190191,0.8246284,4.469278,7.191559,-3.529957
0.009326313,-0.05519022,0.8377404,6.809251,4.92109,-5.66599
0.01715402,-0.07628058,0.8575576,4.161386,4.502846,-5.482901
-0.001687157,-0.07200233,0.8498122,3.853496,6.056324,-4.933636
-0.00127775,-0.06876417,0.8274472,6.50136,6.295321,-3.835104
-0.002307635,-0.05096356,0.8207434,15.12231,5.339334,-1.149806
-0.007535195,-0.05807533,0.8411421,22.88117,5.518582,0.9862267
-0.00693624,-0.05927879,0.8805502,31.93317,5.160087,1.291374
-0.002532144,-0.05574384,0.9058722,35.87418,5.399084,0.009754575
-0.01259072,-0.06336246,0.9228653,38.58362,2.949367,0.3759317
-0.0101914,-0.05271813,0.9282808,46.21933,-0.8745813,0.6810792
-0.01459237,-0.02909103,0.9284276,55.14817,-5.35577,-1.393924
-0.01905409,0.005073634,0.9169596,68.14118,-9.597963,-2.431426
-0.003095552,-0.000153282,0.9276211,75.40742,-12.16718,-2.858632
0.008568004,0.0010178,0.9597359,80.57999,-10.01621,-1.94319
-0.004475954,0.01114137,0.9607807,84.76731,-8.940722,-2.248337
-0.003530333,0.04359092,0.9833612,89.13937,-6.730001,-1.393924
-0.01074903,0.04701227,0.9916599,80.64157,-5.774014,-0.7836291
-0.003569369,0.06532824,0.9893326,82.05787,-6.431255,2.267847
-0.00506907,0.1175843,1.017875,86.24519,-7.924985,2.084758
0.000300609,0.1201525,1.042703,79.84105,-4.579031,-0.6615701
0.007910129,0.1359316,1.019923,79.34843,-2.667057,-1.454954
0.003514711,0.1333851,0.9984993,75.53057,-2.667057,-1.088777
4.29E-05,0.168575,0.9967692,83.28944,-3.682793,2.023729
0.001069112,0.1871352,1.034837,88.7699,-7.745738,-1.210836
0.01458758,0.1920278,1.044589,102.194,-6.8495,-5.971138
-0.008316435,0.2443544,1.008914,116.9112,-8.462729,-11.58585
0.02457443,0.2324665,1.032175,124.1774,-11.03194,-15.00351
0.04738859,0.2172853,1.070021,117.5885,-9.060221,-9.877027
0.03903726,0.2484696,1.044913,92.1567,-8.044484,-3.16378
0.01526338,0.2350503,0.9830491,65.37016,-8.104234,2.572994
0.002937678,0.2814988,0.9312727,50.59138,-12.40617,5.441381
-0.004079718,0.3303835,0.8829134,49.17508,-14.3779,2.817112
0.003118214,0.3317667,0.871724,67.27909,-14.31815,-2.553485
0.0117643,0.3462467,0.8727785,90.37093,-12.58542,-5.60496
0.01537466,0.3084452,0.9202346,102.3171,-11.15144,-4.933636
0.01344866,0.3613062,0.9687318,115.2485,-10.13571,-2.614514
0.03044394,0.3858153,1.031154,111.9233,-8.40298,-5.482901
0.02754226,0.4081016,1.048323,111.9849,-2.42806,-8.839524
0.02438715,0.4182052,0.9666358,113.0933,1.276389,-12.5013
0.02358566,0.4485531,0.8831227,121.5911,-5.35577,-13.966
0.01327556,0.4651244,0.8345698,126.4558,-12.22693,-15.73586
0.01940331,0.4847065,0.8030539,132.0594,-17.7836,-13.29468
0.02186629,0.4503905,0.7901917,140.5572,-20.83081,-14.75939
0.02030767,0.4797287,0.777719,150.7792,-22.68303,-11.52482
0.02232596,0.5061077,0.8323785,152.0723,-23.28053,-9.815997
0.01356774,0.5680034,0.8609846,148.3161,-18.08235,-12.80644
0.03139098,0.5970688,0.8801253,151.5181,-9.119969,-21.71675
0.02588819,0.614096,0.8267052,149.9171,0.3204024,-30.38294
0.03237112,0.6591058,0.7739325,151.826,0.9776434,-32.58001
0.05024467,0.6233005,0.7522903,140.9267,-1.292826,-30.93221
0.03762993,0.6071249,0.7113261,127.8721,-7.805487,-23.12043
0.01526932,0.5979989,0.6417019,121.0369,-13.54141,-16.28513
0.01127109,0.6214554,0.6141102,115.9259,-19.81507,-7.496875
-0.001279434,0.6577889,0.6425641,113.7707,-24.11701,-4.872606
0.02433418,0.6797462,0.6811203,113.3396,-23.87802,-1.149806
0.03528431,0.7512178,0.6961442,113.4628,-25.13275,2.328876
0.02161958,0.7988667,0.6828187,117.8964,-25.073,1.596522
0.07449804,0.8286079,0.6508421,136.5546,-19.21758,-6.093196
0.03642131,0.8286245,0.6581707,135.0152,-28.5982,-5.727019
0.08036418,0.7798058,0.6344831,132.6136,-22.56354,-8.778495
0.05514852,0.7688206,0.5765285,127.5642,-26.68623,-6.032167
0.03269309,0.7856763,0.4973298,132.8599,-28.17996,-5.238783
0.01856468,0.8129984,0.4722025,137.7862,-30.92842,-7.496875
0.03798715,0.8089333,0.5144984,127.9952,-33.01964,-7.313787
0.04525204,0.8148248,0.5305869,118.3275,-30.80892,-5.116724
0.04132015,0.849577,0.5361536,110.6917,-26.38748,-3.774075
0.05190514,0.8514719,0.5293444,105.9502,-20.29307,-4.201282
0.06249632,0.842227,0.5146817,102.5634,-14.19865,-3.041721
0.06364273,0.8794059,0.4438607,99.42294,-12.94392,-1.760101
0.04668079,0.8719406,0.4083054,98.31452,-15.69238,-2.614514
0.09219975,0.9179599,0.514632,84.64416,-13.00367,2.511965
0.09367612,0.9320872,0.5375875,57.73446,-7.506741,7.028149
0.07338768,0.8869019,0.485261,33.8421,1.21664,9.835506
0.05050795,0.8888493,0.4127847,15.79967,6.833064,9.896536
0.03996679,0.84971,0.401363,2.375618,6.833064,5.990647
0.03098924,0.888343,0.3329917,1.513522,10.41801,3.12226
0.03907016,0.9094332,0.3112158,4.530856,8.625539,-1.210836
0.03683576,0.9132062,0.3759603,8.410286,6.773315,-4.079223
0.05433777,0.9227358,0.4334252,5.885578,11.135,-6.276285
0.0718041,0.8992143,0.4488408,-3.597472,16.45268,-6.520403
0.07311849,0.9081443,0.410938,-9.632139,20.87412,-4.994665
0.05650088,0.922689,0.3472924,-8.462152,20.27663,-5.971138
0.04142717,0.9185319,0.3005637,-0.6417161,16.51243,-9.083643
0.04682721,0.8983742,0.3155223,4.284543,10.53751,-10.91453
0.04654395,0.8886185,0.3758036,1.267209,6.056324,-10.42629
0.05136739,0.9089906,0.3944149,-6.183758,6.534318,-7.740993
0.06575908,0.9292049,0.3862541,-11.11002,7.13181,-6.093196
0.05993244,0.9402685,0.3824328,-16.40575,4.682093,-2.004219
0.04641382,0.9436192,0.3800304,-19.42308,3.546859,-0.173334
0.04013436,0.9595948,0.3908378,-17.32942,4.682093,-0.2343635
0.04221365,0.9065785,0.3953805,-11.41791,6.534318,-0.6615701
0.04351829,0.924216,0.3619101,-8.585309,5.458833,-0.417452
0.03491203,0.9078819,0.3730097,-7.107432,2.053129,0.3149022
0.04030233,0.9182531,0.4119978,-8.092684,1.276389,-0.5395111
0.04947328,0.9265212,0.4222598,-10.92528,2.471373,-0.7836291
0.04893307,0.9327002,0.4076993,-8.708466,6.175823,-1.332895
0.04307542,0.9339986,0.3843542,-6.368493,6.833064,-3.346868
0.05617641,0.9235128,0.4027718,-5.260085,5.757578,-2.736573
0.058603,0.9235476,0.408123,-5.629554,4.2041,-1.332895
0.05240659,0.9115766,0.4226535,-7.907948,4.084601,0.4369612
0.03691572,0.9017401,0.3934087,-9.693718,3.546859,1.962699
0.03790037,0.8949953,0.3943403,-10.00161,2.172627,1.901669
0.04081276,0.888734,0.3952733,-12.71105,1.575135,2.023729
0.03308454,0.8896719,0.3918786,-7.784793,3.248113,0.3149022
0.0360896,0.8680927,0.4112099,-4.644302,2.650621,-2.126278
0.04048704,0.8725831,0.4350779,-4.02852,4.980839,-1.88216
0.04526274,0.8918828,0.4361646,-5.07535,6.116074,-2.004219
0.04574111,0.8972089,0.4396029,-7.292167,7.012311,-1.454954
0.0451978,0.8980471,0.4191706,-7.907948,6.175823,0.07078408
0.0349624,0.9041108,0.3870987,-2.058016,5.63808,-0.8446586
0.03984487,0.9086077,0.4119396,0.2203793,2.112878,-1.149806
0.03800252,0.9092774,0.4426018,-1.750125,0.7386467,-0.6005406
0.03558445,0.9010174,0.4328212,-5.260085,1.515386,0.4979907
0.03700777,0.8888451,0.4137683,-4.582724,2.531122,2.572994
0.03366923,0.8874679,0.4254412,-5.444819,1.634884,3.244319
0.03127288,0.8991361,0.4410856,-8.031105,2.471373,2.878142
0.03124312,0.906346,0.4372364,-8.893201,2.829868,2.267847
0.03020765,0.9110418,0.4168279,-7.600058,2.232376,1.291374
0.03745285,0.9164059,0.425614,-5.07535,0.7983959,-0.295393
0.02976865,0.9154987,0.4358333,-1.011186,0.6788976,-2.065249
0.02928917,0.9067758,0.4289681,0.3435358,1.99338,-2.248337
0.04473943,0.9116758,0.4396915,-0.6417161,2.650621,-2.004219
0.05101503,0.9228472,0.4519199,-0.8264508,4.622344,0.07078408
0.0456128,0.9187543,0.4144298,-1.19592,4.084601,1.108286
0.03794918,0.8863717,0.4035336,0.7745835,0.5593992,1.413433
0.02207835,0.8738452,0.4073627,3.422448,-1.233076,2.450935
0.01396459,0.8764454,0.4390146,3.052979,-1.292826,0.9251972
0.01980925,0.8911212,0.4721891,-0.3338249,0.6191484,-1.760101
0.02798175,0.8978608,0.4693041,-4.274833,3.068865,-2.370396
0.0288759,0.9088633,0.4547717,-8.21584,5.160087,-2.370396
0.02690737,0.8985936,0.4318399,-8.031105,6.952562,-3.652016
0.02154607,0.9004077,0.4138503,-8.21584,5.63808,-4.32334
0.0244123,0.9153837,0.4178319,-5.567976,3.367611,-5.543931
0.03126389,0.9059057,0.4440463,-4.521146,1.336138,-5.727019
0.02164433,0.8981944,0.4459534,-3.412737,1.634884,-5.543931
0.0312772,0.8865377,0.4312768,1.94457,2.889617,-4.201282
0.02504314,0.8788498,0.4365877,2.006148,0.3801516,-1.821131
0.01641149,0.8833126,0.4575459,2.498774,0.2009041,0.6810792
0.01545459,0.8896321,0.4658574,1.328788,1.873881,1.535492
0.01786506,0.891572,0.4673272,-0.2106684,3.248113,0.6810792
0.02606855,0.8775268,0.4565301,-2.24275,3.188363,1.657551
0.004302875,0.8764022,0.4331824,-2.920111,3.128614,0.8641677
0.008172168,0.8638215,0.4258038,-2.304329,2.949367,-0.05127494
0.0134515,0.8758938,0.4278196,-2.858533,3.42736,0.3149022
0.0259962,0.9084059,0.4591506,-5.07535,2.590872,0.7421087
0.0197121,0.9185525,0.46311,-6.060602,3.307862,0.5590202
0.02549676,0.9156423,0.4596816,-5.506398,4.622344,0.3759317
0.01532829,0.904393,0.4352903,-4.274833,4.622344,-0.4784815
0.01243666,0.9058497,0.4372479,-1.996438,4.682093,-2.553485
0.009563918,0.8879502,0.4283823,-0.3954031,4.084601,-3.590986
0.004312622,0.8589662,0.4209112,1.205631,1.93363,-2.553485
0.004750248,0.8719633,0.4170968,1.451944,-0.2173402,-1.699072
0.007684827,0.8870862,0.4449234,2.190883,-1.113578,-0.6615701
0.004823266,0.891032,0.4595481,1.082475,0.3801516,-0.9667177
-0.0102526,0.8975385,0.4216431,4.03823,3.666357,-0.8446586
-0.01079391,0.8915921,0.3958169,8.902912,4.2041,-2.492455
-0.00111313,0.8902216,0.4069932,12.47445,3.367611,-3.529957
0.005134572,0.9013331,0.409489,13.58286,2.650621,-3.957164
0.01531014,0.8912613,0.4172059,10.19606,-0.9940796,-3.041721
0.01677782,0.8956717,0.4284237,8.348708,-2.069565,-1.821131
0.02407463,0.8967825,0.4512958,4.592434,-2.189063,-0.295393
0.01729014,0.8981612,0.4410904,2.683509,-1.770819,0.3759317
0.02356573,0.8962399,0.4415605,1.636679,-1.113578,0.3759317
0.03131922,0.9002056,0.4581236,-0.8264508,0.1411549,-0.173334
0.03034589,0.8987311,0.4537358,-3.412737,-0.3368386,0.07078408
0.03083355,0.8851655,0.4434342,-6.368493,-1.053829,0.6810792
0.01966372,0.8980821,0.4279495,-7.107432,-1.233076,2.267847
0.01866359,0.9086729,0.4250948,-3.65905,-1.173327,0.7421087
0.01872263,0.9015261,0.4391632,-1.442233,-0.6953337,-0.1123045
0.0254814,0.9025165,0.4425704,1.020896,0.3204024,-0.7836291
0.02596412,0.9083369,0.4479581,-1.011186,-0.3368386,-0.4784815
0.02599125,0.9146991,0.4630818,-3.412737,-0.03809267,-0.8446586
0.03469327,0.9166917,0.4723329,-5.814289,-0.03809267,-1.271865
0.02547366,0.9175324,0.4533671,-6.245337,0.7386467,-1.332895
0.02309279,0.9078975,0.4552569,-6.060602,-0.3965878,-2.004219
0.0158499,0.8967193,0.4420559,-4.582724,-0.6953337,-2.065249
0.02164309,0.9030409,0.4498757,-3.905363,-2.189063,-1.393924
0.02409121,0.891969,0.4527263,-4.090098,-3.503546,-0.4784815
0.02360339,0.9006851,0.458619,-5.752711,-4.280285,1.169315
0.01394385,0.9074354,0.4596406,-5.136928,-3.025552,1.77961
0.01631108,0.904918,0.4421054,-4.02852,-3.14505,1.535492
0.01247524,0.8913851,0.4376467,-3.289581,-3.563295,1.169315
0.01055678,0.8894666,0.4395829,-1.996438,-3.981539,1.413433
0.01060606,0.8866631,0.4541644,-2.119594,-3.264549,1.047256
0.0130497,0.8877044,0.4663342,-3.843785,-0.9343305,1.352404
0.0187781,0.891947,0.4498106,-5.567976,1.097142,0.8031382
0.01825928,0.8908982,0.4361794,-5.07535,2.232376,1.047256
0.02254823,0.9004894,0.4269886,-4.02852,1.336138,1.169315
0.02160884,0.9005427,0.4357488,-3.166424,-0.157591,1.047256
0.02501387,0.896244,0.442046,-3.843785,-1.113578,1.413433
0.02455904,0.8861193,0.4424716,-4.521146,-0.9343305,1.718581
0.01924748,0.8865857,0.440532,-4.952193,-0.8745813,2.206817
0.0197381,0.886604,0.4434514,-5.07535,-0.9940796,2.084758
0.01782616,0.887609,0.4502716,-4.274833,-1.412324,2.389906
0.01875765,0.8933578,0.4439798,-3.905363,-2.42806,3.000201
0.0177527,0.8932701,0.4298682,-2.304329,-2.667057,2.939171
0.02022965,0.8895338,0.4493082,-0.08751191,-3.025552,2.267847
0.03042367,0.8804716,0.4643305,-0.02593367,-2.129314,2.511965
0.03282484,0.8838461,0.4638625,-2.365907,-0.03809267,2.695053
0.03520277,0.8886254,0.4565904,-4.582724,1.455637,2.878142
0.03805922,0.8817591,0.4375686,-5.136928,2.053129,2.817112
0.02793632,0.8778815,0.4356064,-4.521146,2.053129,2.634024
0.02554135,0.8720957,0.4360597,-2.858533,1.575135,0.5590202
0.02846351,0.8658556,0.4403991,-2.24275,1.455637,-0.295393
0.03036897,0.8881127,0.4522115,-0.9496073,2.351875,-0.05127494
0.02121554,0.8910353,0.4580757,-1.319077,3.068865,-1.271865
0.02077622,0.8857931,0.4682631,-2.058016,3.965103,-2.004219
0.02465622,0.8848734,0.4750672,-3.166424,5.817328,-1.821131
0.01350809,0.8915328,0.4614909,-4.644302,7.012311,-1.94319
0.01830856,0.8880947,0.4507608,-4.274833,6.653816,-2.553485
0.01108847,0.8871487,0.4546535,-3.412737,6.235572,-2.919662
0.01839535,0.8805226,0.4740723,-2.920111,5.578331,-3.346868
0.009167522,0.8774662,0.4487568,-1.688546,5.100338,-3.957164
0.01119755,0.8578033,0.4661541,-0.3954031,5.100338,-3.407898
0.01694316,0.8679019,0.4608582,-0.8264508,4.801591,-1.515983
0.009234313,0.8683964,0.4637868,-2.550642,4.024852,-0.5395111
0.01456695,0.8728246,0.4774348,-3.412737,3.905354,0.07078408
0.006281171,0.8910571,0.46344,-2.673798,2.889617,0.6200497
-0.000982321,0.8895329,0.4517576,0.4666923,1.99338,0.009754575
-0.004369827,0.9050225,0.4615865,1.020896,0.02165651,-0.4784815
0.00335515,0.9113516,0.4703781,2.129305,-0.5758353,-2.187308
0.006286137,0.8978567,0.4712671,2.314039,-1.053829,-2.980691
0.007236539,0.9060706,0.4737493,2.190883,-0.5160862,-2.004219
0.01352577,0.9032087,0.4781067,1.636679,-0.6355845,-1.210836
0.02322374,0.8902372,0.4848331,-0.08751191,-0.09784186,0.3759317
0.01067937,0.8805168,0.4740782,-2.058016,0.1411549,1.535492
0.01214717,0.8548626,0.4583497,-2.181172,0.7983959,3.12226
0.01165159,0.8567732,0.4554419,-1.811703,1.156891,2.817112
0.009673934,0.8615162,0.4428203,-2.058016,-0.2173402,2.756083
0.009653959,0.8818399,0.4541358,-1.011186,-1.412324,1.901669
0.01158746,0.8959136,0.4683316,-0.3954031,-1.770819,0.6810792
0.0159212,0.9017218,0.4712832,-0.6417161,-1.71107,-0.7836291
0.01648511,0.8868654,0.4862777,-0.5801378,-0.6953337,-1.149806
0.01554587,0.8786753,0.4876885,-1.934859,0.9776434,-0.8446586
0.01409989,0.872372,0.4822986,-3.412737,2.053129,-0.417452
0.01798283,0.8675793,0.4866461,-4.213254,2.531122,0.3759317
0.01786567,0.876056,0.4536077,-4.02852,1.515386,1.169315
0.01735646,0.8789071,0.4468128,-1.442233,-0.9343305,1.047256
0.01499542,0.874649,0.4604141,1.144053,-1.950067,2.023729
0.02176536,0.8800278,0.4716336,0.5282705,-2.726806,2.084758
0.02324758,0.8689521,0.4739983,0.3435358,-2.189063,2.023729
0.02274582,0.8776382,0.4750247,-0.7032943,-2.069565,2.145788
0.02228279,0.8810737,0.4847782,-0.7032943,-1.173327,2.267847
0.02568563,0.8612528,0.4763828,-0.5801378,-0.03809267,2.572994
0.0217734,0.8616182,0.4578966,0.4666923,0.2606533,2.756083
0.01599835,0.8640642,0.464242,2.929822,1.156891,2.572994
0.02024716,0.8832675,0.4497568,6.193469,1.156891,1.352404
0.01491267,0.8904734,0.4459117,8.718177,-0.3368386,0.1318136
0.01982739,0.8955244,0.4824347,6.809251,-1.531822,-1.821131
0.02752059,0.8983907,0.4770935,1.513522,-0.6953337,-1.149806
0.02264927,0.8939179,0.4561456,-0.8264508,-1.531822,0.6200497
0.01292479,0.8937397,0.4284149,2.252461,-3.503546,1.413433
0.01827431,0.8855964,0.4366339,4.469278,-6.491004,1.77961
0.01884583,0.8857887,0.4677779,6.193469,-6.311757,2.206817
0.01359361,0.8669859,0.4691277,5.208217,-5.176522,3.000201
0.01257457,0.8794757,0.4614184,5.639265,-3.802291,3.305348
0.01980971,0.8838484,0.465819,5.392951,-2.308562,1.77961
0.02413739,0.8794603,0.4575166,4.777169,-1.651321,0.8031382
0.02023772,0.8929455,0.4551683,3.791917,-1.352575,-0.1123045
0.01880646,0.8890985,0.4570925,2.190883,-0.2770894,-0.6615701
0.02554865,0.8905383,0.4551496,0.03564457,0.6788976,-1.210836
0.01969472,0.9034828,0.4435539,-0.7032943,0.9178943,-1.210836
0.02556741,0.8968825,0.4673535,-2.181172,0.9776434,-1.454954
0.02556554,0.8866953,0.4575594,-2.920111,2.770119,-2.126278
0.02072476,0.8861675,0.4507472,-2.058016,3.546859,-2.004219
0.0260326,0.8871478,0.4526956,-2.920111,3.188363,-2.065249
0.02700067,0.8895808,0.4561159,-1.750125,3.188363,-0.7836291
0.02847097,0.8847834,0.4599786,-2.181172,2.829868,-0.2343635
0.02747997,0.8890899,0.4546527,-1.56539,2.172627,0.3149022
0.02401884,0.8966625,0.4318305,-0.6417161,0.6788976,0.4369612
0.02648355,0.8938698,0.4478699,2.437196,-0.3965878,0.2538726
0.02122112,0.886683,0.4561028,2.560353,-2.069565,-0.05127494
0.02607383,0.8896611,0.4692557,3.114557,-1.472073,0.4979907
0.02943516,0.8881779,0.4629182,2.252461,-1.173327,1.047256
0.03334598,0.8703524,0.46524,1.636679,-1.053829,1.413433
0.03767569,0.8810012,0.4711407,0.2203793,0.2009041,2.389906
0.02751484,0.8891649,0.4668185,-0.1490902,1.515386,2.817112
0.02311912,0.8900122,0.4483357,0.2203793,1.097142,1.901669
0.02122593,0.888633,0.4595209,1.513522,0.8581451,0.6810792
0.01928344,0.8900573,0.4561247,0.7745835,0.6191484,-0.6615701
0.0246466,0.8809735,0.4682309,0.2819575,1.156891,-0.7836291
0.01923432,0.8977104,0.4459523,0.405114,1.037393,-0.6005406
0.02892548,0.8939375,0.458574,0.2819575,0.4399008,-1.271865
0.02122143,0.8920178,0.4610013,0.03564457,1.156891,-0.8446586
0.02121291,0.8915145,0.457592,-1.996438,0.7386467,-0.7225996
0.01732407,0.8909605,0.4463994,-2.304329,0.6788976,-0.417452
0.01829059,0.8972694,0.452763,-1.811703,0.3204024,-1.149806
0.02991896,0.8930308,0.4678134,-2.24275,-0.2173402,-0.9667177
0.02360401,0.8938976,0.4527384,-3.474315,0.1411549,-0.173334
0.0192853,0.8827876,0.4502412,-3.166424,-0.3368386,0.07078408
0.01588492,0.8885511,0.4468725,-0.6417161,-0.09784186,0.6810792
0.01302877,0.8832951,0.4551153,-0.888029,-0.2173402,-0.4784815
0.01542328,0.8876252,0.4531932,-0.3338249,-0.2770894,-1.577013
0.02465328,0.8887465,0.4775237,-2.24275,0.3801516,-1.94319
0.02753329,0.8901744,0.4741239,-2.981689,1.575135,-1.699072
0.03426028,0.8833379,0.4594788,-1.072764,2.531122,-0.173334
0.02939578,0.8827592,0.4443939,-1.380655,1.336138,-0.05127494
0.02407773,0.8890304,0.4454093,-0.3338249,0.2606533,-0.05127494
0.02266569,0.8798906,0.4492478,0.2203793,-0.9940796,-0.6005406
0.024169,0.8737093,0.463321,-0.3338249,-0.9343305,-0.2343635
0.02756814,0.8640638,0.4627732,-2.304329,-0.157591,-0.05127494
0.01883141,0.8755744,0.4536041,-3.289581,-0.03809267,-0.295393
0.02173002,0.8784971,0.4579991,-2.24275,0.6191484,-0.417452
0.01928266,0.8832668,0.4497575,-0.4569814,1.276389,-1.027747
0.01782786,0.8842183,0.4478179,0.4666923,1.037393,-1.577013
0.01927306,0.8880954,0.45076,0.4666923,0.8581451,-2.065249
0.01492446,0.9011669,0.4596018,-0.02593367,1.156891,-2.248337
0.02364307,0.9070743,0.4781224,-0.6417161,1.336138,-2.675544
0.01976508,0.9012095,0.4659244,-0.7648726,1.814132,-2.370396
0.01447754,0.8852402,0.457559,-1.134342,1.575135,-1.760101
0.01252483,0.8851878,0.4492878,-0.2722467,0.6191484,-0.9667177
0.01548417,0.8688443,0.4574588,-0.3338249,0.02165651,0.07078408
0.01498627,0.8634762,0.4472076,-0.3954031,0.02165651,0.6810792
0.01499278,0.870764,0.4560109,-0.1490902,1.037393,1.230345
0.01690892,0.8784965,0.4584895,-0.1490902,1.336138,1.901669
0.01595264,0.8780285,0.4609204,-0.4569814,1.276389,1.657551
0.01501681,0.8761498,0.4691822,-1.56539,1.754383,0.4979907
0.01354264,0.8819087,0.4648387,-1.011186,3.546859,0.6200497
0.01932405,0.8862653,0.4668072,-1.750125,3.666357,0.009754575
0.02314748,0.891528,0.459537,-1.873281,3.785855,0.4369612
0.02312687,0.8924535,0.4532166,0.03564457,3.128614,-0.05127494
0.01830112,0.8866239,0.4468589,1.144053,2.590872,-0.6615701
0.01879422,0.8856778,0.4497725,2.437196,1.814132,-1.393924
0.02318886,0.8857979,0.4687479,1.759835,1.276389,-1.638042
0.0231884,0.8887064,0.4711986,0.158801,1.455637,-1.271865
0.02319212,0.8872597,0.4711898,-1.626968,1.873881,-0.3564225
0.01883839,0.8886822,0.4677955,-2.365907,1.93363,0.3149022
0.02369078,0.877597,0.4682111,-2.673798,1.93363,0.3759317
0.01876988,0.8836857,0.4395415,-1.56539,1.276389,1.047256
0.01588771,0.8885571,0.4478458,0.4666923,0.0814057,0.8641677
